timestamp,accelX,accelY,accelZ,gyroX,gyroY,gyroZ,magX,magY,magZ
687932.0,0.41333,-0.748413,-0.530273,-0.427246,0.244141,0.183105,-26.0,-3.0,-3.0
687967.0,0.412842,-0.749023,-0.53064,-0.427246,0.244141,0.183105,-26.0,-4.0,0.0
687998.0,0.411499,-0.748291,-0.532837,-0.183105,0.427246,0.366211,-26.0,-4.0,0.0
688031.0,0.41748,-0.741943,-0.530396,-0.366211,0.671387,0.366211,-26.0,-4.0,0.0
688064.0,0.408691,-0.753174,-0.530884,0.0,-0.915527,0.305176,-25.0,-3.0,-1.0
688096.0,0.414062,-0.749146,-0.532837,-0.915527,-0.12207,-0.061035,-25.0,-3.0,-1.0
688128.0,0.414307,-0.741943,-0.534302,-0.549316,-0.427246,0.366211,-25.0,-3.0,-1.0
688161.0,0.413208,-0.746826,-0.531738,-0.183105,0.0,0.244141,-25.0,-4.0,0.0
688192.0,0.41333,-0.751831,-0.529785,-0.610352,-0.671387,0.12207,-25.0,-4.0,0.0
688223.0,0.415283,-0.746094,-0.531982,-0.793457,-0.549316,0.0,-25.0,-4.0,0.0
688255.0,0.413696,-0.746948,-0.531616,-0.549316,-0.671387,0.183105,-25.0,-5.0,0.0
688286.0,0.410156,-0.748291,-0.533447,-0.610352,0.0,0.183105,-25.0,-5.0,0.0
688317.0,0.416382,-0.748657,-0.530029,-0.732422,0.366211,0.0,-25.0,-5.0,0.0
688349.0,0.41272,-0.745117,-0.531738,0.061035,0.427246,0.244141,-26.0,-3.0,-1.0
688381.0,0.417725,-0.751587,-0.526978,-0.427246,1.037598,0.12207,-26.0,-3.0,-1.0
688414.0,0.418091,-0.748291,-0.529053,-0.732422,-0.305176,0.061035,-26.0,-3.0,-1.0
688445.0,0.410889,-0.748291,-0.53125,-0.671387,-0.671387,0.12207,-26.0,-3.0,-1.0
688483.0,0.410278,-0.745117,-0.536133,-0.549316,0.488281,0.244141,-25.0,-2.0,1.0
688515.0,0.419067,-0.748169,-0.525269,-0.427246,0.671387,0.183105,-25.0,-2.0,1.0
688547.0,0.413696,-0.75,-0.530518,-0.244141,-0.12207,0.12207,-26.0,-5.0,-4.0
688582.0,0.41272,-0.746216,-0.534668,-0.610352,0.427246,-0.12207,-26.0,-5.0,-4.0
688616.0,0.417603,-0.74585,-0.528931,-0.366211,0.183105,0.061035,-26.0,-5.0,-4.0
688653.0,0.410034,-0.747437,-0.532349,-0.488281,-0.12207,0.0,-23.0,-5.0,4.0
688686.0,0.414551,-0.748657,-0.531738,-0.183105,0.671387,0.061035,-23.0,-5.0,4.0
688718.0,0.414429,-0.747925,-0.529785,-0.305176,0.427246,0.061035,-23.0,-5.0,4.0
688751.0,0.412231,-0.750977,-0.529785,-0.305176,0.488281,0.183105,-23.0,-4.0,0.0
688786.0,0.414429,-0.746704,-0.532104,-0.488281,0.0,0.061035,-23.0,-4.0,0.0
688818.0,0.414185,-0.746826,-0.531128,-0.427246,0.061035,0.061035,-23.0,-4.0,0.0
688851.0,0.41272,-0.746216,-0.53418,-0.549316,0.12207,0.0,-24.0,-6.0,4.0
688885.0,0.413452,-0.749634,-0.530029,-0.427246,0.183105,0.183105,-24.0,-6.0,4.0
688920.0,0.413452,-0.747314,-0.531006,-0.427246,0.244141,0.061035,-24.0,-6.0,4.0
688956.0,0.413452,-0.748291,-0.532593,-0.366211,-0.061035,0.12207,-26.0,-2.0,1.0
688991.0,0.415161,-0.748779,-0.529663,-0.488281,0.244141,0.0,-26.0,-2.0,1.0
689024.0,0.413696,-0.747559,-0.531006,-0.366211,-0.12207,0.12207,-26.0,-2.0,1.0
689056.0,0.411987,-0.749146,-0.532227,-0.488281,0.12207,0.12207,-23.0,-5.0,0.0
689092.0,0.415039,-0.748535,-0.529663,-0.549316,0.183105,0.12207,-23.0,-5.0,0.0
689127.0,0.411377,-0.748535,-0.53186,-0.366211,0.0,0.12207,-23.0,-5.0,0.0
689160.0,0.414185,-0.74646,-0.533081,-0.549316,0.549316,0.0,-24.0,-5.0,0.0
689192.0,0.415405,-0.74585,-0.530518,-0.366211,0.305176,-0.061035,-24.0,-5.0,0.0
689224.0,0.411621,-0.74939,-0.53125,-0.244141,0.183105,0.0,-24.0,-5.0,0.0
689256.0,0.409546,-0.747681,-0.536011,-0.183105,0.732422,0.244141,-24.0,-4.0,0.0
689288.0,0.416382,-0.750366,-0.529175,-0.549316,0.793457,0.0,-24.0,-4.0,0.0
689319.0,0.411255,-0.747681,-0.531738,-0.305176,-0.183105,0.12207,-24.0,-4.0,0.0
689351.0,0.409424,-0.751343,-0.534546,-0.488281,0.12207,0.244141,-24.0,-1.0,0.0
689382.0,0.415771,-0.742187,-0.531372,-0.732422,0.549316,-0.183105,-24.0,-1.0,0.0
689414.0,0.411743,-0.749512,-0.530518,-0.12207,-0.061035,0.305176,-24.0,-1.0,0.0
689448.0,0.410645,-0.751221,-0.53418,-0.671387,0.244141,0.0,-24.0,-7.0,7.0
689479.0,0.415405,-0.745728,-0.531982,-0.488281,0.12207,0.061035,-24.0,-7.0,7.0
689511.0,0.41272,-0.748657,-0.532959,-0.244141,0.0,0.061035,-24.0,-7.0,7.0
689544.0,0.411499,-0.747559,-0.531128,-0.427246,0.244141,-0.061035,-24.0,-5.0,2.0
689575.0,0.412354,-0.749146,-0.53125,-0.427246,0.183105,0.183105,-24.0,-5.0,2.0
689606.0,0.411377,-0.747314,-0.533203,-0.427246,0.305176,0.12207,-24.0,-5.0,2.0
689638.0,0.412842,-0.748291,-0.532349,-0.366211,0.244141,0.244141,-24.0,-7.0,3.0
689669.0,0.411621,-0.747925,-0.535034,-0.366211,0.12207,0.244141,-24.0,-7.0,3.0
689701.0,0.413086,-0.748047,-0.53186,-0.488281,0.244141,0.061035,-24.0,-7.0,3.0
689734.0,0.414185,-0.746948,-0.531006,-0.549316,-0.244141,0.0,-24.0,-5.0,6.0
689766.0,0.410156,-0.750122,-0.533447,-0.488281,-0.061035,0.12207,-24.0,-5.0,6.0
689800.0,0.414429,-0.746704,-0.531006,-0.549316,0.12207,-0.061035,-24.0,-5.0,6.0
689834.0,0.412842,-0.747803,-0.532104,-0.366211,0.0,0.183105,-26.0,-4.0,4.0
689869.0,0.41272,-0.748779,-0.53064,-0.549316,0.183105,0.0,-26.0,-4.0,4.0
689900.0,0.412354,-0.746826,-0.531372,-0.366211,0.183105,0.12207,-26.0,-4.0,4.0
689936.0,0.411987,-0.749146,-0.531616,-0.427246,0.12207,0.12207,-24.0,-3.0,0.0
689968.0,0.412354,-0.746094,-0.532959,-0.488281,0.061035,0.12207,-24.0,-3.0,0.0
689999.0,0.412842,-0.747681,-0.53064,-0.305176,0.244141,0.183105,-24.0,-3.0,0.0
690031.0,0.412109,-0.748779,-0.534058,-0.427246,0.061035,0.061035,-26.0,-5.0,1.0
690062.0,0.413452,-0.748169,-0.53064,-0.427246,0.183105,0.0,-26.0,-5.0,1.0
690093.0,0.411987,-0.746948,-0.533569,-0.488281,-0.12207,0.061035,-26.0,-5.0,1.0
690125.0,0.412598,-0.748413,-0.532837,-0.488281,0.183105,0.183105,-25.0,-5.0,1.0
690156.0,0.412231,-0.748413,-0.531006,-0.488281,0.0,0.183105,-25.0,-5.0,1.0
690187.0,0.413208,-0.748291,-0.532471,-0.488281,0.12207,0.183105,-25.0,-5.0,1.0
690219.0,0.41333,-0.748535,-0.53125,-0.488281,-0.061035,0.12207,-25.0,-3.0,3.0
690250.0,0.413208,-0.747681,-0.532227,-0.427246,-0.12207,0.12207,-25.0,-3.0,3.0
690281.0,0.411621,-0.748291,-0.532593,-0.488281,0.061035,0.061035,-25.0,-3.0,3.0
690312.0,0.413086,-0.747192,-0.531494,-0.366211,0.0,0.12207,-25.0,-3.0,3.0
690344.0,0.413696,-0.749023,-0.531128,-0.549316,-0.12207,0.061035,-26.0,-2.0,0.0
690375.0,0.412842,-0.745605,-0.533325,-0.427246,0.12207,0.061035,-26.0,-2.0,0.0
690406.0,0.412476,-0.748169,-0.530273,-0.427246,0.12207,0.12207,-26.0,-2.0,0.0
690438.0,0.412964,-0.745972,-0.532593,-0.427246,0.12207,0.12207,-25.0,-3.0,0.0
690469.0,0.412109,-0.747925,-0.531616,-0.427246,0.183105,0.12207,-25.0,-3.0,0.0
690500.0,0.412842,-0.747559,-0.532349,-0.549316,0.183105,0.12207,-25.0,-3.0,0.0
690532.0,0.412231,-0.746582,-0.532593,-0.427246,0.12207,0.183105,-23.0,-3.0,0.0
690563.0,0.412598,-0.746704,-0.53186,-0.427246,0.12207,0.12207,-23.0,-3.0,0.0
690594.0,0.41272,-0.747192,-0.532471,-0.427246,0.12207,0.12207,-23.0,-3.0,0.0
690626.0,0.412476,-0.748657,-0.532471,-0.427246,0.061035,0.12207,-23.0,-6.0,3.0
690657.0,0.411011,-0.747681,-0.533081,-0.427246,0.12207,0.061035,-23.0,-6.0,3.0
690688.0,0.412109,-0.747192,-0.532104,-0.427246,0.12207,0.12207,-23.0,-6.0,3.0
690720.0,0.412964,-0.748169,-0.532471,-0.427246,0.183105,0.183105,-26.0,-4.0,1.0
690751.0,0.41272,-0.746826,-0.531494,-0.366211,0.183105,0.061035,-26.0,-4.0,1.0
690782.0,0.411011,-0.747925,-0.531738,-0.427246,0.12207,0.244141,-26.0,-4.0,1.0
690814.0,0.413086,-0.746826,-0.531494,-0.488281,0.244141,0.061035,-24.0,-5.0,2.0
690845.0,0.412964,-0.748413,-0.533325,-0.427246,0.061035,0.183105,-24.0,-5.0,2.0
690876.0,0.413452,-0.747314,-0.531372,-0.549316,0.061035,0.061035,-24.0,-5.0,2.0
690908.0,0.411865,-0.747314,-0.533203,-0.549316,0.12207,0.183105,-24.0,-4.0,0.0
690939.0,0.412109,-0.747925,-0.532959,-0.549316,0.12207,0.12207,-24.0,-4.0,0.0
690970.0,0.412476,-0.746338,-0.530518,-0.488281,0.061035,0.244141,-24.0,-4.0,0.0
691001.0,0.41272,-0.748535,-0.532471,-0.549316,0.0,0.183105,-24.0,-4.0,0.0
691033.0,0.412109,-0.747192,-0.531982,-0.427246,0.061035,0.12207,-25.0,-5.0,2.0
691064.0,0.41272,-0.748169,-0.532959,-0.488281,0.061035,0.12207,-25.0,-5.0,2.0
691095.0,0.412842,-0.748413,-0.532104,-0.427246,0.061035,0.061035,-25.0,-5.0,2.0
691126.0,0.41272,-0.746338,-0.533203,-0.427246,0.0,0.183105,-26.0,-5.0,0.0
691157.0,0.412354,-0.748413,-0.53125,-0.366211,0.183105,0.12207,-26.0,-5.0,0.0
691188.0,0.412476,-0.748047,-0.532593,-0.427246,0.183105,0.12207,-26.0,-5.0,0.0
691220.0,0.412598,-0.746704,-0.53186,-0.427246,0.305176,0.12207,-25.0,-3.0,2.0
691251.0,0.412231,-0.747437,-0.532959,-0.427246,0.12207,0.305176,-25.0,-3.0,2.0
691282.0,0.412842,-0.747925,-0.532104,-0.488281,0.305176,0.12207,-25.0,-3.0,2.0
691314.0,0.412476,-0.747559,-0.532349,-0.427246,0.183105,0.12207,-25.0,-5.0,3.0
691345.0,0.412598,-0.747192,-0.53418,-0.427246,0.183105,0.12207,-25.0,-5.0,3.0
691376.0,0.412964,-0.747681,-0.531006,-0.488281,0.183105,0.061035,-25.0,-5.0,3.0
691408.0,0.411621,-0.747681,-0.532471,-0.427246,0.061035,0.0,-25.0,-3.0,2.0
691440.0,0.412354,-0.748047,-0.532593,-0.549316,0.12207,0.061035,-25.0,-3.0,2.0
691471.0,0.412964,-0.74707,-0.530518,-0.610352,-0.061035,-0.061035,-25.0,-3.0,2.0
691503.0,0.412842,-0.747803,-0.532471,-0.366211,-0.061035,0.12207,-26.0,-5.0,-2.0
691534.0,0.410767,-0.748535,-0.531738,-0.427246,0.183105,0.061035,-26.0,-5.0,-2.0
691565.0,0.412598,-0.748413,-0.531982,-0.488281,0.305176,0.12207,-26.0,-5.0,-2.0
691597.0,0.41272,-0.747803,-0.532471,-0.427246,0.305176,0.183105,-24.0,-5.0,2.0
691628.0,0.412231,-0.746704,-0.532471,-0.366211,0.183105,0.183105,-24.0,-5.0,2.0
691659.0,0.413574,-0.748535,-0.53418,-0.549316,0.366211,0.12207,-24.0,-5.0,2.0
691690.0,0.414307,-0.747437,-0.530884,-0.427246,0.0,0.183105,-24.0,-5.0,2.0
691722.0,0.412598,-0.748901,-0.532227,-0.488281,0.0,0.12207,-23.0,-7.0,-4.0
691754.0,0.411621,-0.74585,-0.534058,-0.610352,0.0,0.0,-23.0,-7.0,-4.0
691785.0,0.412598,-0.748413,-0.531616,-0.488281,0.061035,0.183105,-23.0,-7.0,-4.0
691817.0,0.410889,-0.748657,-0.533325,-0.488281,-0.061035,0.12207,-24.0,-5.0,1.0
691849.0,0.411987,-0.748047,-0.531982,-0.488281,0.183105,0.12207,-24.0,-5.0,1.0
691880.0,0.413208,-0.746826,-0.53186,-0.488281,0.0,0.12207,-24.0,-5.0,1.0
691912.0,0.411865,-0.748047,-0.532349,-0.427246,0.12207,0.183105,-26.0,-5.0,0.0
691943.0,0.412354,-0.747437,-0.532104,-0.549316,0.183105,0.12207,-26.0,-5.0,0.0
691974.0,0.413086,-0.747559,-0.533081,-0.427246,0.061035,0.12207,-26.0,-5.0,0.0
692006.0,0.412598,-0.748413,-0.532349,-0.427246,0.12207,0.061035,-26.0,-5.0,3.0
692037.0,0.411987,-0.746948,-0.533325,-0.488281,0.183105,0.12207,-26.0,-5.0,3.0
692068.0,0.412354,-0.747559,-0.532104,-0.488281,0.244141,0.12207,-26.0,-5.0,3.0
692100.0,0.411133,-0.746582,-0.530884,-0.366211,0.12207,0.183105,-25.0,-5.0,1.0
692131.0,0.411499,-0.749023,-0.531738,-0.488281,0.183105,0.061035,-25.0,-5.0,1.0
692162.0,0.413452,-0.747314,-0.531738,-0.549316,0.183105,0.12207,-25.0,-5.0,1.0
692194.0,0.411865,-0.748413,-0.533081,-0.305176,0.183105,0.183105,-28.0,-5.0,-1.0
692225.0,0.412231,-0.748535,-0.532471,-0.488281,0.244141,0.061035,-28.0,-5.0,-1.0
692256.0,0.411743,-0.747803,-0.533447,-0.488281,0.12207,0.061035,-28.0,-5.0,-1.0
692288.0,0.412109,-0.747437,-0.532837,-0.427246,0.061035,0.183105,-24.0,-7.0,0.0
692319.0,0.412598,-0.747925,-0.532104,-0.427246,0.0,0.12207,-24.0,-7.0,0.0
692349.0,0.411987,-0.747681,-0.531738,-0.488281,0.12207,0.12207,-24.0,-7.0,0.0
692381.0,0.412598,-0.748169,-0.53186,-0.488281,0.061035,0.12207,-24.0,-5.0,1.0
692412.0,0.412354,-0.748657,-0.533203,-0.488281,0.12207,0.244141,-24.0,-5.0,1.0
692443.0,0.412842,-0.748779,-0.532837,-0.427246,0.0,0.061035,-24.0,-5.0,1.0
692474.0,0.412109,-0.746582,-0.532471,-0.549316,0.0,0.061035,-24.0,-5.0,1.0
692506.0,0.411377,-0.748413,-0.532471,-0.305176,0.12207,0.183105,-26.0,-5.0,1.0
692537.0,0.414185,-0.747559,-0.532959,-0.610352,0.183105,0.12207,-26.0,-5.0,1.0
692568.0,0.412476,-0.746094,-0.532715,-0.366211,0.061035,0.12207,-26.0,-5.0,1.0
692600.0,0.412354,-0.749146,-0.532471,-0.488281,0.061035,0.12207,-24.0,-2.0,-1.0
692631.0,0.412964,-0.747559,-0.534058,-0.549316,0.12207,0.12207,-24.0,-2.0,-1.0
692662.0,0.412354,-0.747803,-0.53186,-0.610352,0.12207,0.244141,-24.0,-2.0,-1.0
692694.0,0.41272,-0.746948,-0.532349,-0.488281,0.12207,0.061035,-24.0,-2.0,1.0
692725.0,0.413696,-0.748291,-0.531982,-0.488281,0.0,0.244141,-24.0,-2.0,1.0
692756.0,0.412598,-0.747559,-0.532715,-0.488281,0.061035,0.12207,-24.0,-2.0,1.0
692788.0,0.413086,-0.746948,-0.531372,-0.366211,0.0,0.12207,-26.0,-3.0,-2.0
692819.0,0.412354,-0.748657,-0.533813,-0.488281,0.0,0.12207,-26.0,-3.0,-2.0
692850.0,0.412354,-0.747192,-0.532471,-0.488281,0.0,0.12207,-26.0,-3.0,-2.0
692882.0,0.41333,-0.748169,-0.531738,-0.366211,0.0,0.12207,-27.0,-4.0,0.0
692913.0,0.411621,-0.748657,-0.532837,-0.549316,-0.12207,0.12207,-27.0,-4.0,0.0
692944.0,0.411377,-0.748169,-0.532471,-0.427246,0.183105,0.061035,-27.0,-4.0,0.0
692976.0,0.412231,-0.747192,-0.532471,-0.366211,0.0,0.12207,-24.0,-6.0,0.0
693007.0,0.411987,-0.748169,-0.532715,-0.427246,0.183105,0.12207,-24.0,-6.0,0.0
693038.0,0.413452,-0.747314,-0.532471,-0.366211,0.061035,0.183105,-24.0,-6.0,0.0
693070.0,0.413452,-0.748413,-0.532837,-0.427246,0.12207,0.12207,-24.0,-4.0,0.0
693101.0,0.412354,-0.746948,-0.532349,-0.488281,0.12207,0.061035,-24.0,-4.0,0.0
693132.0,0.412842,-0.746948,-0.531128,-0.366211,0.0,0.12207,-24.0,-4.0,0.0
693163.0,0.412964,-0.748169,-0.532349,-0.488281,0.0,0.12207,-24.0,-4.0,0.0
693195.0,0.412354,-0.747803,-0.531006,-0.488281,0.0,0.12207,-25.0,-4.0,6.0
693226.0,0.412598,-0.748291,-0.532715,-0.427246,0.061035,0.061035,-25.0,-4.0,6.0
693257.0,0.412598,-0.747925,-0.530518,-0.488281,0.12207,0.061035,-25.0,-4.0,6.0
693289.0,0.41333,-0.747803,-0.532227,-0.549316,0.061035,0.061035,-24.0,-6.0,1.0
693320.0,0.411987,-0.748657,-0.532104,-0.427246,0.183105,0.12207,-24.0,-6.0,1.0
693351.0,0.413086,-0.747803,-0.532715,-0.549316,0.183105,0.12207,-24.0,-6.0,1.0
693383.0,0.412476,-0.746826,-0.531616,-0.549316,0.061035,0.0,-24.0,-7.0,0.0
693414.0,0.41272,-0.748291,-0.533081,-0.366211,0.12207,0.12207,-24.0,-7.0,0.0
693445.0,0.41272,-0.749146,-0.532227,-0.549316,0.244141,0.0,-24.0,-7.0,0.0
693477.0,0.412476,-0.745728,-0.530884,-0.427246,0.183105,0.183105,-25.0,-3.0,-1.0
693509.0,0.411377,-0.748779,-0.53186,-0.488281,0.061035,0.183105,-25.0,-3.0,-1.0
693540.0,0.41333,-0.747192,-0.532837,-0.488281,0.061035,0.12207,-25.0,-3.0,-1.0
693572.0,0.414062,-0.747925,-0.532593,-0.488281,0.0,0.244141,-23.0,-5.0,3.0
693603.0,0.412842,-0.747559,-0.531616,-0.427246,-0.061035,0.12207,-23.0,-5.0,3.0
693634.0,0.413086,-0.748413,-0.532104,-0.549316,0.12207,0.061035,-23.0,-5.0,3.0
693666.0,0.412964,-0.748413,-0.532349,-0.488281,0.061035,0.183105,-24.0,-7.0,-2.0
693697.0,0.41272,-0.748047,-0.530762,-0.427246,0.061035,0.061035,-24.0,-7.0,-2.0
693728.0,0.41272,-0.749023,-0.531494,-0.488281,0.183105,0.061035,-24.0,-7.0,-2.0
693760.0,0.41333,-0.74646,-0.533203,-0.549316,0.183105,0.061035,-25.0,-6.0,1.0
693791.0,0.413086,-0.748901,-0.531738,-0.488281,0.244141,0.183105,-25.0,-6.0,1.0
693821.0,0.412109,-0.748413,-0.532837,-0.427246,0.12207,0.12207,-25.0,-6.0,1.0
693852.0,0.413574,-0.747925,-0.531616,-0.549316,0.244141,0.12207,-25.0,-6.0,1.0
693884.0,0.411621,-0.746338,-0.532715,-0.427246,0.183105,0.183105,-26.0,-5.0,6.0
693915.0,0.412842,-0.747803,-0.531494,-0.488281,0.12207,0.12207,-26.0,-5.0,6.0
693946.0,0.415039,-0.74707,-0.531494,-0.427246,0.12207,0.12207,-26.0,-5.0,6.0
693978.0,0.412231,-0.748291,-0.532471,-0.488281,0.061035,0.12207,-26.0,-4.0,-2.0
694009.0,0.411743,-0.749146,-0.532593,-0.427246,0.061035,0.12207,-26.0,-4.0,-2.0
694040.0,0.412842,-0.748413,-0.53125,-0.488281,0.183105,0.061035,-26.0,-4.0,-2.0
694072.0,0.411987,-0.748291,-0.531982,-0.427246,0.061035,0.183105,-26.0,-4.0,3.0
694103.0,0.412476,-0.748901,-0.531494,-0.427246,0.183105,0.12207,-26.0,-4.0,3.0
694134.0,0.412964,-0.746826,-0.530762,-0.488281,0.12207,0.061035,-26.0,-4.0,3.0
694166.0,0.411499,-0.748291,-0.532593,-0.427246,0.12207,0.244141,-25.0,-6.0,2.0
694197.0,0.413696,-0.747559,-0.532227,-0.610352,0.12207,0.061035,-25.0,-6.0,2.0
694228.0,0.41272,-0.747559,-0.531982,-0.366211,0.0,0.183105,-25.0,-6.0,2.0
694260.0,0.411865,-0.749512,-0.531128,-0.427246,0.061035,0.061035,-26.0,-6.0,-2.0
694291.0,0.412231,-0.746338,-0.533569,-0.610352,0.061035,0.12207,-26.0,-6.0,-2.0
694322.0,0.413574,-0.74707,-0.531372,-0.549316,0.12207,0.12207,-26.0,-6.0,-2.0
694354.0,0.412354,-0.748169,-0.532471,-0.488281,0.061035,0.183105,-26.0,-2.0,1.0
694385.0,0.413208,-0.748169,-0.532959,-0.549316,0.183105,0.12207,-26.0,-2.0,1.0
694417.0,0.413574,-0.747437,-0.53125,-0.488281,0.0,0.061035,-26.0,-2.0,1.0
694449.0,0.412354,-0.747925,-0.532837,-0.427246,0.061035,0.183105,-27.0,-5.0,-1.0
694480.0,0.413208,-0.749023,-0.532227,-0.427246,0.183105,0.061035,-27.0,-5.0,-1.0
694511.0,0.412842,-0.74707,-0.532593,-0.427246,0.061035,0.12207,-27.0,-5.0,-1.0
694542.0,0.412598,-0.748779,-0.53186,-0.427246,0.061035,0.061035,-27.0,-5.0,-1.0
694574.0,0.412231,-0.749023,-0.532715,-0.427246,0.183105,0.12207,-26.0,-5.0,0.0
694605.0,0.413208,-0.746948,-0.530762,-0.427246,0.244141,0.12207,-26.0,-5.0,0.0
694636.0,0.411621,-0.749756,-0.532349,-0.427246,0.12207,0.12207,-26.0,-5.0,0.0
694668.0,0.412964,-0.747925,-0.531982,-0.488281,0.183105,0.12207,-27.0,-5.0,0.0
694699.0,0.41333,-0.746948,-0.531616,-0.427246,0.12207,0.12207,-27.0,-5.0,0.0
694730.0,0.411377,-0.748779,-0.532227,-0.488281,0.061035,0.12207,-27.0,-5.0,0.0
694762.0,0.412842,-0.74707,-0.532104,-0.488281,0.12207,0.061035,-24.0,-2.0,1.0
694793.0,0.413086,-0.747559,-0.532104,-0.366211,0.0,0.12207,-24.0,-2.0,1.0
694824.0,0.412109,-0.747559,-0.532349,-0.488281,0.12207,0.061035,-24.0,-2.0,1.0
694856.0,0.41333,-0.74585,-0.531616,-0.488281,0.12207,0.061035,-25.0,-4.0,1.0
694887.0,0.411865,-0.748291,-0.532593,-0.366211,0.0,0.12207,-25.0,-4.0,1.0
694918.0,0.412476,-0.748169,-0.532593,-0.488281,0.183105,0.12207,-25.0,-4.0,1.0
694950.0,0.411865,-0.747559,-0.532593,-0.427246,0.12207,0.183105,-25.0,-4.0,1.0
694981.0,0.412231,-0.748047,-0.533081,-0.488281,0.183105,0.183105,-25.0,-4.0,1.0
695012.0,0.415161,-0.745728,-0.53125,-0.427246,0.183105,0.244141,-25.0,-4.0,1.0
695044.0,0.412842,-0.746826,-0.528809,-0.305176,-0.671387,0.244141,-23.0,-3.0,0.0
695075.0,0.413452,-0.75,-0.531494,-0.732422,-0.427246,0.12207,-23.0,-3.0,0.0
695106.0,0.412231,-0.745728,-0.530762,-0.732422,-0.488281,0.183105,-23.0,-3.0,0.0
695138.0,0.409424,-0.746582,-0.53772,-0.244141,0.0,0.610352,-26.0,-4.0,3.0
695169.0,0.41687,-0.743896,-0.532104,-0.427246,0.915527,0.427246,-26.0,-4.0,3.0
695200.0,0.417725,-0.752441,-0.529297,-0.488281,-0.366211,0.427246,-26.0,-4.0,3.0
695231.0,0.41333,-0.752686,-0.528076,-1.037598,-1.037598,-0.12207,-26.0,-4.0,3.0
695263.0,0.412109,-0.741943,-0.535278,-0.915527,-0.915527,0.0,-23.0,-3.0,5.0
695294.0,0.413086,-0.749878,-0.530396,-0.793457,-0.427246,-0.061035,-23.0,-3.0,5.0
695325.0,0.412109,-0.747192,-0.533447,-0.732422,-0.549316,-0.12207,-23.0,-3.0,5.0
695357.0,0.415894,-0.747559,-0.530396,-0.671387,0.183105,0.244141,-25.0,-4.0,-1.0
695388.0,0.41748,-0.747559,-0.529297,-0.366211,-0.12207,0.12207,-25.0,-4.0,-1.0
695419.0,0.4104,-0.752197,-0.531128,-0.366211,-0.183105,0.427246,-25.0,-4.0,-1.0
695451.0,0.41394,-0.744873,-0.532104,-0.610352,0.488281,0.12207,-27.0,-7.0,1.0
695482.0,0.41748,-0.745117,-0.530518,-0.305176,0.183105,0.0,-27.0,-7.0,1.0
695514.0,0.409668,-0.751587,-0.532593,-0.305176,0.183105,0.12207,-27.0,-7.0,1.0
695546.0,0.414551,-0.746216,-0.530518,-0.549316,0.549316,0.12207,-25.0,-5.0,3.0
695577.0,0.417725,-0.747559,-0.528442,-0.488281,0.244141,0.12207,-25.0,-5.0,3.0
695608.0,0.410156,-0.749512,-0.530518,-0.305176,-0.12207,0.183105,-25.0,-5.0,3.0
695640.0,0.411865,-0.745728,-0.537476,-0.427246,1.342773,0.12207,-24.0,-4.0,0.0
695671.0,0.420532,-0.74707,-0.524292,-0.061035,0.915527,0.0,-24.0,-4.0,0.0
695702.0,0.410767,-0.753174,-0.532715,-0.366211,-0.061035,0.061035,-24.0,-4.0,0.0
695734.0,0.412354,-0.742432,-0.53479,-0.427246,0.915527,-0.244141,-25.0,-5.0,5.0
695765.0,0.413452,-0.750122,-0.528809,-0.12207,0.488281,0.061035,-25.0,-5.0,5.0
695796.0,0.409912,-0.750244,-0.536865,-0.183105,0.427246,0.183105,-25.0,-5.0,5.0
695828.0,0.416382,-0.745361,-0.527588,-0.488281,1.098633,0.183105,-25.0,-7.0,1.0
695859.0,0.414917,-0.745605,-0.533203,0.12207,0.0,0.183105,-25.0,-7.0,1.0
695889.0,0.412231,-0.754639,-0.53125,-0.671387,-0.061035,0.061035,-25.0,-7.0,1.0
695920.0,0.414795,-0.741821,-0.535156,-0.732422,-0.183105,-0.12207,-25.0,-7.0,1.0
695952.0,0.41394,-0.747925,-0.527954,-0.244141,-0.549316,0.183105,-26.0,-2.0,0.0
695983.0,0.412231,-0.748657,-0.537354,-0.793457,-0.183105,0.12207,-26.0,-2.0,0.0
696014.0,0.418091,-0.745972,-0.526001,-0.976562,-0.183105,0.061035,-26.0,-2.0,0.0
696046.0,0.412476,-0.749268,-0.532837,-0.549316,-0.915527,0.244141,-24.0,-4.0,1.0
696077.0,0.41272,-0.749268,-0.53064,-0.671387,-0.183105,0.0,-24.0,-4.0,1.0
696108.0,0.414185,-0.747314,-0.530762,-0.793457,-0.549316,0.061035,-24.0,-4.0,1.0
696140.0,0.41333,-0.747803,-0.532104,-0.610352,-0.183105,0.12207,-24.0,-6.0,0.0
696171.0,0.414551,-0.746094,-0.529297,-0.488281,-0.427246,0.0,-24.0,-6.0,0.0
696202.0,0.411865,-0.75,-0.532227,-0.183105,0.12207,0.305176,-24.0,-6.0,0.0
696233.0,0.414551,-0.750366,-0.527954,-0.793457,-0.12207,-0.12207,-25.0,-5.0,0.0
696264.0,0.413452,-0.742798,-0.53125,-0.305176,0.061035,0.244141,-25.0,-5.0,0.0
696295.0,0.412109,-0.75293,-0.530029,-0.305176,0.305176,0.305176,-25.0,-5.0,0.0
696327.0,0.41687,-0.744751,-0.531982,-0.427246,0.610352,0.061035,-23.0,-5.0,0.0
696358.0,0.416382,-0.750732,-0.526001,-0.366211,-0.366211,0.061035,-23.0,-5.0,0.0
696389.0,0.412231,-0.748901,-0.532837,-0.610352,-0.12207,0.183105,-23.0,-5.0,0.0
696421.0,0.413696,-0.748047,-0.529053,-0.854492,-0.061035,0.0,-23.0,-5.0,3.0
696452.0,0.415161,-0.745239,-0.530273,-0.366211,0.12207,0.183105,-23.0,-5.0,3.0
696483.0,0.413696,-0.751953,-0.529785,-0.183105,0.061035,0.183105,-23.0,-5.0,3.0
696515.0,0.413696,-0.75,-0.530151,-0.549316,0.183105,-0.061035,-26.0,-4.0,3.0
696546.0,0.415405,-0.745483,-0.530396,-0.671387,0.12207,0.061035,-26.0,-4.0,3.0
696577.0,0.413452,-0.747314,-0.531494,-0.12207,0.366211,0.305176,-26.0,-4.0,3.0
696608.0,0.412354,-0.750977,-0.529907,-0.427246,0.366211,0.244141,-26.0,-4.0,3.0
696640.0,0.415771,-0.74585,-0.529907,-0.549316,0.305176,0.183105,-26.0,-5.0,4.0
696671.0,0.415039,-0.749268,-0.530518,-0.244141,0.0,0.183105,-26.0,-5.0,4.0
696702.0,0.414795,-0.747681,-0.531616,-0.549316,0.183105,0.12207,-26.0,-5.0,4.0
696735.0,0.414917,-0.746948,-0.529175,-0.427246,0.061035,0.061035,-28.0,-5.0,3.0
696767.0,0.413696,-0.74646,-0.532959,-0.427246,0.305176,-0.061035,-28.0,-5.0,3.0
696798.0,0.415039,-0.750488,-0.527344,-0.427246,0.12207,0.0,-28.0,-5.0,3.0
696830.0,0.413208,-0.748291,-0.531372,-0.549316,0.12207,0.061035,-24.0,-8.0,0.0
696861.0,0.414551,-0.746826,-0.530151,-0.549316,0.061035,0.061035,-24.0,-8.0,0.0
696892.0,0.413696,-0.748413,-0.530273,-0.427246,0.183105,0.061035,-24.0,-8.0,0.0
696924.0,0.412476,-0.749268,-0.533203,-0.366211,0.366211,0.0,-24.0,-6.0,-5.0
696955.0,0.415039,-0.746948,-0.529175,-0.366211,0.671387,-0.061035,-24.0,-6.0,-5.0
696986.0,0.413818,-0.747681,-0.531616,-0.183105,0.427246,0.183105,-24.0,-6.0,-5.0
697018.0,0.413696,-0.749268,-0.531616,-0.244141,0.671387,0.061035,-24.0,-2.0,0.0
697049.0,0.414551,-0.748047,-0.529419,-0.366211,0.244141,0.183105,-24.0,-2.0,0.0
697080.0,0.414429,-0.747437,-0.531372,-0.427246,0.183105,0.183105,-24.0,-2.0,0.0
697113.0,0.41272,-0.746826,-0.531494,-0.549316,-0.12207,0.183105,-24.0,-5.0,3.0
697145.0,0.413696,-0.748047,-0.532104,-0.549316,0.12207,0.183105,-24.0,-5.0,3.0
697176.0,0.414673,-0.747925,-0.530518,-0.488281,0.061035,0.061035,-24.0,-5.0,3.0
697210.0,0.413696,-0.747314,-0.532104,-0.427246,0.0,0.061035,-24.0,-3.0,0.0
697242.0,0.413574,-0.748047,-0.530273,-0.549316,0.0,0.0,-24.0,-3.0,0.0
697273.0,0.411987,-0.748413,-0.531372,-0.671387,-0.061035,0.12207,-24.0,-3.0,0.0
697305.0,0.41272,-0.747803,-0.530518,-0.488281,0.0,0.12207,-27.0,-3.0,-2.0
697337.0,0.412476,-0.747803,-0.53125,-0.488281,0.061035,0.244141,-27.0,-3.0,-2.0
697369.0,0.412964,-0.747559,-0.530762,-0.427246,0.244141,0.244141,-27.0,-3.0,-2.0
697401.0,0.413696,-0.748657,-0.532715,-0.427246,0.12207,0.183105,-25.0,-4.0,3.0
697432.0,0.413696,-0.747437,-0.531616,-0.488281,0.305176,0.12207,-25.0,-4.0,3.0
697463.0,0.414673,-0.748169,-0.53125,-0.488281,0.12207,0.12207,-25.0,-4.0,3.0
697495.0,0.412109,-0.74939,-0.529785,-0.549316,0.183105,0.061035,-25.0,-5.0,0.0
697526.0,0.414673,-0.74585,-0.532349,-0.549316,0.244141,0.12207,-25.0,-5.0,0.0
697557.0,0.413696,-0.749268,-0.529541,-0.366211,0.0,0.183105,-25.0,-5.0,0.0
697589.0,0.412964,-0.749023,-0.531006,-0.549316,0.183105,0.12207,-25.0,-5.0,0.0
697621.0,0.414795,-0.747437,-0.53064,-0.549316,0.244141,0.183105,-25.0,-5.0,0.0
697653.0,0.412842,-0.747559,-0.531006,-0.366211,0.0,0.183105,-25.0,-5.0,0.0
697685.0,0.413452,-0.748779,-0.531128,-0.427246,0.12207,0.183105,-25.0,-5.0,0.0
697720.0,0.414307,-0.747803,-0.530884,-0.488281,0.183105,0.12207,-25.0,-2.0,0.0
697751.0,0.413818,-0.74939,-0.531128,-0.427246,0.061035,0.12207,-25.0,-2.0,0.0
697782.0,0.412964,-0.747437,-0.531372,-0.488281,0.061035,0.061035,-25.0,-2.0,0.0
697814.0,0.413208,-0.747925,-0.530518,-0.488281,0.244141,0.061035,-25.0,-4.0,1.0
697845.0,0.414062,-0.749023,-0.531738,-0.427246,0.12207,0.183105,-25.0,-4.0,1.0
697876.0,0.412964,-0.74707,-0.531372,-0.488281,0.183105,0.061035,-25.0,-4.0,1.0
697908.0,0.414673,-0.748413,-0.530396,-0.366211,0.12207,0.183105,-24.0,-4.0,0.0
697939.0,0.413086,-0.748657,-0.532227,-0.427246,0.12207,0.183105,-24.0,-4.0,0.0
697969.0,0.413452,-0.748779,-0.530273,-0.427246,0.183105,0.061035,-24.0,-4.0,0.0
698001.0,0.413818,-0.747925,-0.531616,-0.366211,0.061035,0.12207,-25.0,-4.0,1.0
698032.0,0.412964,-0.747314,-0.532837,-0.488281,0.12207,0.061035,-25.0,-4.0,1.0
698063.0,0.415039,-0.746826,-0.531006,-0.488281,0.12207,0.061035,-25.0,-4.0,1.0
698096.0,0.412598,-0.748657,-0.532349,-0.488281,0.061035,0.12207,-24.0,-5.0,4.0
698127.0,0.413208,-0.748169,-0.53125,-0.488281,0.12207,0.183105,-24.0,-5.0,4.0
698158.0,0.412842,-0.747925,-0.531372,-0.488281,0.183105,0.12207,-24.0,-5.0,4.0
698190.0,0.414062,-0.747437,-0.531616,-0.488281,0.12207,0.12207,-25.0,-4.0,0.0
698221.0,0.412476,-0.748535,-0.53064,-0.427246,0.061035,0.12207,-25.0,-4.0,0.0
698252.0,0.412964,-0.74939,-0.532349,-0.549316,0.183105,0.12207,-25.0,-4.0,0.0
698285.0,0.41394,-0.746582,-0.53125,-0.488281,0.12207,0.0,-24.0,-7.0,2.0
698316.0,0.41394,-0.749268,-0.532593,-0.427246,0.061035,0.244141,-24.0,-7.0,2.0
698347.0,0.412964,-0.748901,-0.529663,-0.488281,0.0,-0.061035,-24.0,-7.0,2.0
698378.0,0.412598,-0.746948,-0.532715,-0.488281,0.12207,0.244141,-24.0,-7.0,2.0
698410.0,0.41333,-0.748047,-0.53125,-0.488281,0.244141,0.244141,-24.0,-4.0,0.0
698441.0,0.413208,-0.747925,-0.532349,-0.549316,0.061035,0.061035,-24.0,-4.0,0.0
698472.0,0.413452,-0.749023,-0.53186,-0.488281,0.12207,0.12207,-24.0,-4.0,0.0
698505.0,0.412598,-0.747681,-0.533203,-0.549316,0.061035,0.12207,-24.0,-4.0,0.0
698536.0,0.412476,-0.747681,-0.529419,-0.305176,0.12207,0.183105,-24.0,-4.0,0.0
698566.0,0.412476,-0.747559,-0.532227,-0.305176,0.244141,0.183105,-24.0,-4.0,0.0
698598.0,0.414062,-0.748047,-0.531982,-0.488281,0.427246,0.061035,-27.0,-6.0,0.0
698629.0,0.413696,-0.748413,-0.532837,-0.244141,0.366211,0.12207,-27.0,-6.0,0.0
698660.0,0.412231,-0.747559,-0.532349,-0.305176,0.305176,0.12207,-27.0,-6.0,0.0
698692.0,0.414185,-0.748291,-0.531494,-0.488281,0.366211,0.0,-24.0,-4.0,1.0
698723.0,0.411499,-0.748535,-0.534058,-0.244141,0.305176,0.244141,-24.0,-4.0,1.0
698754.0,0.413086,-0.748657,-0.53125,-0.427246,0.549316,0.12207,-24.0,-4.0,1.0
698786.0,0.41333,-0.74707,-0.530884,-0.427246,0.305176,0.061035,-24.0,-5.0,0.0
698818.0,0.413574,-0.747925,-0.532227,-0.427246,0.12207,0.12207,-24.0,-5.0,0.0
698849.0,0.415161,-0.746094,-0.531128,-0.488281,0.061035,-0.061035,-24.0,-5.0,0.0
698881.0,0.411743,-0.748535,-0.532959,-0.366211,-0.061035,0.061035,-26.0,-6.0,3.0
698913.0,0.412109,-0.748047,-0.533081,-0.549316,0.305176,0.0,-26.0,-6.0,3.0
698944.0,0.41394,-0.749023,-0.529663,-0.366211,0.366211,0.12207,-26.0,-6.0,3.0
698976.0,0.41272,-0.748169,-0.532715,-0.427246,0.183105,0.12207,-24.0,-8.0,-1.0
699007.0,0.412842,-0.748413,-0.531006,-0.427246,0.366211,0.183105,-24.0,-8.0,-1.0
699038.0,0.412354,-0.747803,-0.533081,-0.427246,0.183105,0.244141,-24.0,-8.0,-1.0
699070.0,0.413574,-0.74707,-0.533081,-0.610352,0.12207,0.244141,-27.0,-5.0,1.0
699101.0,0.412476,-0.745728,-0.53064,-0.244141,0.12207,0.12207,-27.0,-5.0,1.0
699132.0,0.412598,-0.749756,-0.533325,-0.488281,-0.12207,0.061035,-27.0,-5.0,1.0
699163.0,0.412231,-0.745605,-0.534668,-0.488281,0.183105,0.0,-27.0,-5.0,1.0
699195.0,0.413208,-0.749756,-0.530762,-0.549316,-0.061035,0.12207,-26.0,-3.0,1.0
699226.0,0.410278,-0.746826,-0.533203,-0.488281,-0.12207,0.061035,-26.0,-3.0,1.0
699257.0,0.414185,-0.747559,-0.532471,-0.549316,0.244141,0.305176,-26.0,-3.0,1.0
699289.0,0.41333,-0.749268,-0.531372,-0.488281,0.183105,0.12207,-27.0,-3.0,1.0
699320.0,0.412231,-0.749512,-0.533447,-0.549316,0.12207,0.244141,-27.0,-3.0,1.0
699351.0,0.413086,-0.746704,-0.531372,-0.488281,0.305176,0.12207,-27.0,-3.0,1.0
699384.0,0.41272,-0.746216,-0.532715,-0.427246,0.061035,0.183105,-22.0,-4.0,0.0
699417.0,0.41333,-0.748413,-0.533081,-0.427246,0.183105,0.183105,-22.0,-4.0,0.0
699448.0,0.414307,-0.746826,-0.532471,-0.488281,0.061035,0.061035,-22.0,-4.0,0.0
699480.0,0.412476,-0.748047,-0.532715,-0.427246,0.0,0.0,-24.0,-5.0,2.0
699511.0,0.411011,-0.748169,-0.532837,-0.488281,0.12207,0.061035,-24.0,-5.0,2.0
699542.0,0.412354,-0.748169,-0.531494,-0.488281,0.12207,0.12207,-24.0,-5.0,2.0
699574.0,0.412598,-0.747314,-0.531982,-0.427246,0.12207,0.183105,-26.0,-4.0,2.0
699605.0,0.41272,-0.748657,-0.532349,-0.366211,0.061035,0.061035,-26.0,-4.0,2.0
699636.0,0.411377,-0.748169,-0.533081,-0.488281,0.061035,0.183105,-26.0,-4.0,2.0
699668.0,0.413818,-0.74707,-0.532837,-0.549316,0.244141,0.12207,-26.0,-6.0,3.0
699699.0,0.41394,-0.746948,-0.531738,-0.427246,0.0,0.12207,-26.0,-6.0,3.0
699730.0,0.412109,-0.748535,-0.532593,-0.427246,0.061035,0.183105,-26.0,-6.0,3.0
699762.0,0.412476,-0.748657,-0.532715,-0.549316,0.061035,0.061035,-24.0,-7.0,-1.0
699793.0,0.413696,-0.746582,-0.531982,-0.427246,0.0,0.061035,-24.0,-7.0,-1.0
699824.0,0.412109,-0.748169,-0.531494,-0.488281,-0.061035,0.061035,-24.0,-7.0,-1.0
699856.0,0.412964,-0.747925,-0.532715,-0.488281,0.0,0.12207,-27.0,-6.0,2.0
699887.0,0.413086,-0.746948,-0.531616,-0.488281,0.061035,0.12207,-27.0,-6.0,2.0
699918.0,0.412964,-0.747559,-0.532715,-0.488281,0.0,0.183105,-27.0,-6.0,2.0
699950.0,0.412842,-0.746826,-0.535034,-0.427246,0.061035,0.061035,-27.0,-6.0,2.0
699982.0,0.413818,-0.747803,-0.530762,-0.610352,0.12207,0.12207,-24.0,-4.0,5.0
700013.0,0.414062,-0.747192,-0.532593,-0.366211,0.061035,0.12207,-24.0,-4.0,5.0
700045.0,0.411865,-0.747925,-0.53186,-0.427246,0.12207,0.12207,-24.0,-4.0,5.0
700077.0,0.413086,-0.748291,-0.53125,-0.427246,0.0,0.061035,-23.0,-4.0,1.0
700108.0,0.412354,-0.748413,-0.532715,-0.549316,0.244141,0.183105,-23.0,-4.0,1.0
700139.0,0.41333,-0.747559,-0.531982,-0.488281,0.12207,0.12207,-23.0,-4.0,1.0
700171.0,0.413208,-0.746948,-0.531616,-0.427246,-0.061035,0.244141,-24.0,-4.0,1.0
700202.0,0.413452,-0.748291,-0.531738,-0.549316,-0.12207,0.12207,-24.0,-4.0,1.0
700233.0,0.411499,-0.746826,-0.533447,-0.549316,-0.061035,0.12207,-24.0,-4.0,1.0
700265.0,0.414551,-0.747925,-0.531738,-0.427246,0.183105,0.061035,-24.0,-4.0,3.0
700296.0,0.412231,-0.748291,-0.532349,-0.427246,0.061035,0.12207,-24.0,-4.0,3.0
700327.0,0.412842,-0.747437,-0.532104,-0.549316,0.12207,0.0,-24.0,-4.0,3.0
700359.0,0.411865,-0.747192,-0.532471,-0.366211,-0.061035,0.061035,-25.0,-6.0,3.0
700391.0,0.411987,-0.747192,-0.533691,-0.610352,0.305176,0.061035,-25.0,-6.0,3.0
700422.0,0.413208,-0.747192,-0.53186,-0.427246,0.183105,0.061035,-25.0,-6.0,3.0
700454.0,0.412476,-0.749268,-0.532471,-0.488281,0.183105,0.12207,-25.0,-1.0,0.0
700485.0,0.41272,-0.747681,-0.53186,-0.427246,0.366211,0.183105,-25.0,-1.0,0.0
700516.0,0.414673,-0.746704,-0.531006,-0.366211,0.244141,0.061035,-25.0,-1.0,0.0
700548.0,0.412964,-0.747314,-0.532227,-0.427246,0.183105,0.183105,-25.0,-5.0,-1.0
700579.0,0.413208,-0.747681,-0.53064,-0.427246,0.183105,0.12207,-25.0,-5.0,-1.0
700610.0,0.411621,-0.749268,-0.532104,-0.366211,0.183105,0.183105,-25.0,-5.0,-1.0
700642.0,0.412109,-0.748169,-0.531128,-0.549316,0.183105,0.12207,-25.0,-5.0,2.0
700673.0,0.414062,-0.749146,-0.531494,-0.366211,0.305176,0.12207,-25.0,-5.0,2.0
700704.0,0.411865,-0.747314,-0.532837,-0.427246,0.12207,0.061035,-25.0,-5.0,2.0
700736.0,0.412964,-0.748535,-0.530396,-0.488281,0.244141,0.12207,-25.0,-5.0,2.0
700768.0,0.412354,-0.749023,-0.532959,-0.366211,0.061035,0.183105,-24.0,-5.0,0.0
700799.0,0.413086,-0.74646,-0.532959,-0.549316,0.305176,0.061035,-24.0,-5.0,0.0
700830.0,0.413696,-0.747437,-0.531006,-0.488281,0.12207,0.12207,-24.0,-5.0,0.0
700862.0,0.413086,-0.749023,-0.532471,-0.427246,0.061035,0.12207,-24.0,-7.0,0.0
700893.0,0.412598,-0.74646,-0.534424,-0.488281,0.061035,0.12207,-24.0,-7.0,0.0
700924.0,0.413208,-0.749634,-0.532227,-0.549316,0.12207,0.12207,-24.0,-7.0,0.0
700956.0,0.413086,-0.74585,-0.532715,-0.671387,0.12207,0.061035,-26.0,-3.0,3.0
700987.0,0.413086,-0.749878,-0.531372,-0.427246,0.061035,0.12207,-26.0,-3.0,3.0
701017.0,0.412354,-0.748047,-0.532837,-0.610352,0.12207,0.061035,-26.0,-3.0,3.0
701049.0,0.413086,-0.746826,-0.529663,-0.427246,0.12207,0.061035,-24.0,-1.0,1.0
701080.0,0.411743,-0.748169,-0.532837,-0.488281,-0.061035,0.12207,-24.0,-1.0,1.0
701111.0,0.412842,-0.748657,-0.53125,-0.488281,0.12207,0.061035,-24.0,-1.0,1.0
701143.0,0.41333,-0.747681,-0.532959,-0.488281,0.061035,0.12207,-24.0,-5.0,2.0
701174.0,0.412231,-0.748413,-0.532715,-0.488281,0.061035,0.183105,-24.0,-5.0,2.0
701205.0,0.41333,-0.747559,-0.532104,-0.488281,0.244141,0.12207,-24.0,-5.0,2.0
701237.0,0.414307,-0.747681,-0.531006,-0.366211,0.183105,0.12207,-27.0,-3.0,1.0
701268.0,0.412964,-0.748657,-0.532593,-0.549316,0.183105,0.12207,-27.0,-3.0,1.0
701299.0,0.412354,-0.747559,-0.532227,-0.427246,0.183105,0.12207,-27.0,-3.0,1.0
701331.0,0.412231,-0.747681,-0.532837,-0.427246,0.183105,0.183105,-26.0,-3.0,0.0
701362.0,0.412109,-0.748291,-0.532471,-0.427246,0.061035,0.12207,-26.0,-3.0,0.0
701393.0,0.412354,-0.748169,-0.533447,-0.488281,0.183105,0.061035,-26.0,-3.0,0.0
701424.0,0.412964,-0.748291,-0.53125,-0.488281,0.12207,0.061035,-26.0,-3.0,0.0
701456.0,0.413208,-0.74707,-0.532593,-0.549316,0.0,0.12207,-24.0,-3.0,3.0
701487.0,0.413086,-0.747314,-0.531616,-0.427246,0.183105,0.061035,-24.0,-3.0,3.0
701517.0,0.411743,-0.746826,-0.531006,-0.427246,0.12207,0.12207,-24.0,-3.0,3.0
701549.0,0.412231,-0.748291,-0.532104,-0.366211,0.183105,0.12207,-26.0,-2.0,2.0
701580.0,0.412476,-0.747192,-0.532349,-0.549316,0.183105,0.061035,-26.0,-2.0,2.0
701611.0,0.41272,-0.748169,-0.532349,-0.366211,0.061035,0.12207,-26.0,-2.0,2.0
701643.0,0.413452,-0.748047,-0.533203,-0.549316,0.061035,0.183105,-24.0,-5.0,-1.0
701674.0,0.413452,-0.747681,-0.532104,-0.366211,0.061035,0.061035,-24.0,-5.0,-1.0
701704.0,0.413574,-0.748047,-0.533569,-0.549316,0.12207,0.061035,-24.0,-5.0,-1.0
701736.0,0.413086,-0.747681,-0.53186,-0.488281,0.061035,0.12207,-24.0,-3.0,1.0
701767.0,0.412598,-0.747925,-0.532349,-0.549316,0.244141,0.244141,-24.0,-3.0,1.0
701798.0,0.414551,-0.747925,-0.531006,-0.549316,0.183105,0.12207,-24.0,-3.0,1.0
701830.0,0.412842,-0.749268,-0.532715,-0.366211,0.061035,0.244141,-26.0,-3.0,-1.0
701861.0,0.413086,-0.747559,-0.532837,-0.488281,0.12207,0.061035,-26.0,-3.0,-1.0
701892.0,0.412842,-0.746338,-0.531006,-0.427246,0.061035,0.12207,-26.0,-3.0,-1.0
701923.0,0.412109,-0.748535,-0.533081,-0.366211,0.061035,0.061035,-25.0,-2.0,2.0
701954.0,0.412842,-0.74707,-0.532593,-0.427246,0.183105,0.183105,-25.0,-2.0,2.0
701985.0,0.411987,-0.748657,-0.53186,-0.488281,0.061035,0.061035,-25.0,-2.0,2.0
702015.0,0.412476,-0.748291,-0.532104,-0.366211,0.061035,0.12207,-25.0,-2.0,2.0
702046.0,0.412231,-0.748169,-0.532227,-0.488281,0.183105,0.12207,-24.0,-5.0,5.0
702077.0,0.413574,-0.74707,-0.531616,-0.427246,0.183105,0.12207,-24.0,-5.0,5.0
702108.0,0.412476,-0.746948,-0.532593,-0.427246,0.12207,0.12207,-24.0,-5.0,5.0
702139.0,0.412354,-0.748169,-0.531982,-0.427246,0.12207,0.12207,-25.0,-4.0,0.0
702170.0,0.412842,-0.747803,-0.531372,-0.549316,0.061035,0.12207,-25.0,-4.0,0.0
702200.0,0.412842,-0.748535,-0.533325,-0.427246,0.061035,0.12207,-25.0,-4.0,0.0
702231.0,0.41272,-0.749023,-0.532471,-0.427246,0.12207,0.061035,-23.0,-2.0,3.0
702261.0,0.411499,-0.746094,-0.533325,-0.549316,0.061035,0.12207,-23.0,-2.0,3.0
702291.0,0.413086,-0.747803,-0.531006,-0.427246,0.244141,0.12207,-23.0,-2.0,3.0
702323.0,0.41272,-0.748657,-0.532837,-0.427246,0.061035,0.12207,-25.0,-3.0,3.0
702354.0,0.41272,-0.747803,-0.531738,-0.549316,0.061035,0.0,-25.0,-3.0,3.0
702384.0,0.412964,-0.747925,-0.53125,-0.427246,0.061035,0.0,-25.0,-3.0,3.0
702416.0,0.410767,-0.746094,-0.534302,-0.427246,0.12207,0.183105,-25.0,-3.0,-1.0
702447.0,0.412842,-0.749146,-0.532104,-0.488281,0.183105,0.061035,-25.0,-3.0,-1.0
702478.0,0.412476,-0.745972,-0.532715,-0.366211,0.061035,0.12207,-25.0,-3.0,-1.0
702508.0,0.410645,-0.750854,-0.53064,-0.366211,0.183105,0.12207,-25.0,-3.0,-1.0
702539.0,0.414307,-0.745605,-0.534546,-0.732422,0.183105,0.12207,-26.0,-2.0,3.0
702570.0,0.411621,-0.748535,-0.530762,-0.244141,0.12207,0.12207,-26.0,-2.0,3.0
702601.0,0.411621,-0.747803,-0.533203,-0.427246,0.183105,0.244141,-26.0,-2.0,3.0
702632.0,0.41394,-0.747925,-0.53064,-0.488281,0.244141,0.061035,-24.0,-6.0,-1.0
702663.0,0.411499,-0.749756,-0.533691,-0.366211,0.427246,0.244141,-24.0,-6.0,-1.0
702694.0,0.414062,-0.747681,-0.53064,-0.549316,0.0,0.183105,-24.0,-6.0,-1.0
702725.0,0.412476,-0.748169,-0.532471,-0.427246,0.12207,0.12207,-25.0,-4.0,2.0
702756.0,0.413574,-0.748291,-0.533325,-0.549316,-0.061035,0.12207,-25.0,-4.0,2.0
702788.0,0.411987,-0.747192,-0.531494,-0.427246,-0.061035,0.061035,-25.0,-4.0,2.0
702820.0,0.413208,-0.751831,-0.531616,-0.366211,0.0,0.12207,-28.0,-3.0,-1.0
702851.0,0.414307,-0.744995,-0.532959,-0.610352,-0.183105,-0.12207,-28.0,-3.0,-1.0
702882.0,0.413086,-0.75,-0.532837,-0.488281,0.0,0.183105,-28.0,-3.0,-1.0
702914.0,0.412598,-0.747803,-0.531494,-0.671387,-0.244141,0.0,-26.0,-1.0,1.0
702945.0,0.412354,-0.748535,-0.533691,-0.488281,-0.12207,0.183105,-26.0,-1.0,1.0
702975.0,0.411499,-0.747192,-0.532349,-0.610352,-0.061035,0.061035,-26.0,-1.0,1.0
703007.0,0.411621,-0.749512,-0.531616,-0.549316,0.12207,0.305176,-24.0,-3.0,1.0
703038.0,0.41333,-0.746704,-0.531372,-0.610352,0.061035,0.12207,-24.0,-3.0,1.0
703068.0,0.41394,-0.747192,-0.530151,-0.427246,0.0,0.12207,-24.0,-3.0,1.0
703098.0,0.412476,-0.747681,-0.534302,-0.366211,0.061035,0.12207,-24.0,-3.0,1.0
703129.0,0.412598,-0.749023,-0.53064,-0.488281,0.183105,0.061035,-24.0,-4.0,-1.0
703160.0,0.412231,-0.748291,-0.531982,-0.488281,0.12207,0.12207,-24.0,-4.0,-1.0
703190.0,0.411743,-0.748169,-0.531372,-0.366211,0.305176,0.244141,-24.0,-4.0,-1.0
703222.0,0.412598,-0.746582,-0.530151,-0.549316,0.061035,-0.427246,-26.0,-7.0,-3.0
703253.0,0.411255,-0.746216,-0.535767,0.0,0.793457,0.671387,-26.0,-7.0,-3.0
703283.0,0.414795,-0.751587,-0.526367,-0.549316,0.183105,-0.305176,-26.0,-7.0,-3.0
703315.0,0.411011,-0.745605,-0.536255,-0.12207,0.488281,0.488281,-26.0,-4.0,4.0
703346.0,0.415771,-0.748413,-0.528931,-0.793457,0.305176,0.0,-26.0,-4.0,4.0
703376.0,0.415161,-0.744507,-0.533325,-0.305176,-0.061035,0.12207,-26.0,-4.0,4.0
703407.0,0.412231,-0.752808,-0.530884,-0.610352,-0.244141,0.183105,-25.0,-5.0,0.0
703438.0,0.410156,-0.743774,-0.534302,-0.671387,-0.244141,0.183105,-25.0,-5.0,0.0
703468.0,0.412231,-0.750732,-0.53064,-0.488281,0.061035,0.305176,-25.0,-5.0,0.0
703499.0,0.410645,-0.748047,-0.532471,-0.610352,-0.244141,0.061035,-25.0,-3.0,-1.0
703530.0,0.413696,-0.745728,-0.535889,-0.549316,0.427246,0.12207,-25.0,-3.0,-1.0
703561.0,0.416382,-0.753784,-0.525391,-0.427246,-0.305176,0.061035,-25.0,-3.0,-1.0
703593.0,0.409668,-0.745483,-0.539307,-0.732422,-0.061035,0.244141,-25.0,-7.0,0.0
703624.0,0.415649,-0.746338,-0.526123,-0.427246,0.305176,-0.061035,-25.0,-7.0,0.0
703655.0,0.409424,-0.750366,-0.537964,-0.305176,-0.12207,0.366211,-25.0,-7.0,0.0
703685.0,0.414917,-0.74939,-0.526367,-0.732422,0.671387,-0.061035,-25.0,-7.0,0.0
703716.0,0.413086,-0.745361,-0.532959,-0.366211,-0.244141,0.12207,-27.0,-5.0,0.0
703747.0,0.409424,-0.751343,-0.534912,-0.305176,0.12207,0.305176,-27.0,-5.0,0.0
703777.0,0.415405,-0.745483,-0.529785,-0.610352,0.366211,-0.061035,-27.0,-5.0,0.0
703808.0,0.411987,-0.748901,-0.533081,-0.305176,0.061035,0.305176,-25.0,-5.0,3.0
703839.0,0.412109,-0.748291,-0.53186,-0.549316,0.305176,0.0,-25.0,-5.0,3.0
703869.0,0.414062,-0.746094,-0.532471,-0.366211,0.12207,0.244141,-25.0,-5.0,3.0
703900.0,0.412964,-0.749756,-0.531494,-0.488281,0.061035,0.061035,-24.0,-4.0,3.0
703931.0,0.41333,-0.747559,-0.532471,-0.488281,0.12207,0.061035,-24.0,-4.0,3.0
703962.0,0.41272,-0.747681,-0.531372,-0.366211,0.183105,0.183105,-24.0,-4.0,3.0
703994.0,0.412109,-0.747192,-0.531616,-0.427246,0.244141,0.12207,-23.0,-4.0,0.0
704024.0,0.412598,-0.748779,-0.531982,-0.488281,0.244141,0.183105,-23.0,-4.0,0.0
704054.0,0.412598,-0.747925,-0.531128,-0.427246,0.183105,0.12207,-23.0,-4.0,0.0
704086.0,0.412476,-0.747925,-0.531128,-0.488281,0.12207,0.061035,-27.0,-4.0,2.0
704117.0,0.414185,-0.747925,-0.532227,-0.488281,0.244141,0.12207,-27.0,-4.0,2.0
704147.0,0.412598,-0.746948,-0.532959,-0.488281,0.12207,0.061035,-27.0,-4.0,2.0
704178.0,0.41333,-0.75,-0.532104,-0.427246,0.061035,0.183105,-27.0,-4.0,2.0
704209.0,0.413086,-0.746704,-0.531616,-0.610352,0.0,0.0,-26.0,-3.0,0.0
704240.0,0.412354,-0.748169,-0.530884,-0.488281,0.061035,0.244141,-26.0,-3.0,0.0
704271.0,0.412842,-0.748169,-0.532349,-0.488281,0.12207,0.12207,-26.0,-3.0,0.0
704302.0,0.412842,-0.748291,-0.532715,-0.549316,0.12207,0.183105,-27.0,-4.0,0.0
704333.0,0.412598,-0.749268,-0.532227,-0.427246,0.061035,0.061035,-27.0,-4.0,0.0
704363.0,0.412842,-0.746948,-0.531494,-0.549316,0.183105,0.061035,-27.0,-4.0,0.0
704394.0,0.412109,-0.747803,-0.53186,-0.549316,0.061035,0.12207,-24.0,-5.0,1.0
704425.0,0.412842,-0.748657,-0.533081,-0.488281,0.183105,0.061035,-24.0,-5.0,1.0
704455.0,0.413696,-0.74707,-0.532104,-0.488281,0.183105,0.0,-24.0,-5.0,1.0
704486.0,0.411987,-0.749634,-0.531738,-0.305176,0.061035,0.183105,-25.0,-6.0,1.0
704517.0,0.413086,-0.748535,-0.532471,-0.488281,0.12207,0.12207,-25.0,-6.0,1.0
704548.0,0.413208,-0.747192,-0.531006,-0.366211,0.061035,0.12207,-25.0,-6.0,1.0
704579.0,0.412354,-0.748047,-0.532593,-0.427246,0.183105,0.12207,-27.0,-7.0,1.0
704610.0,0.413086,-0.748047,-0.532349,-0.549316,0.183105,0.061035,-27.0,-7.0,1.0
704641.0,0.41333,-0.748901,-0.531738,-0.488281,0.061035,0.183105,-27.0,-7.0,1.0
704671.0,0.412964,-0.748169,-0.532349,-0.427246,0.061035,0.12207,-27.0,-7.0,1.0
704702.0,0.41333,-0.748047,-0.532104,-0.427246,0.12207,0.12207,-28.0,-3.0,2.0
704733.0,0.412842,-0.748047,-0.53186,-0.549316,0.061035,0.12207,-28.0,-3.0,2.0
704763.0,0.411743,-0.747559,-0.532471,-0.427246,0.061035,0.12207,-28.0,-3.0,2.0
704794.0,0.412598,-0.747437,-0.531738,-0.549316,0.061035,0.061035,-25.0,-5.0,0.0
704825.0,0.411743,-0.748291,-0.531128,-0.488281,0.061035,0.12207,-25.0,-5.0,0.0
704856.0,0.412231,-0.748047,-0.532349,-0.488281,0.061035,0.183105,-25.0,-5.0,0.0
704887.0,0.413818,-0.747559,-0.530762,-0.488281,0.183105,0.183105,-26.0,-5.0,0.0
704918.0,0.412964,-0.748657,-0.533569,-0.488281,0.061035,0.12207,-26.0,-5.0,0.0
704948.0,0.412354,-0.746582,-0.532104,-0.427246,0.061035,0.061035,-26.0,-5.0,0.0
704979.0,0.412109,-0.749634,-0.532837,-0.488281,0.244141,0.12207,-26.0,-2.0,3.0
705010.0,0.413452,-0.747803,-0.531372,-0.549316,0.12207,0.0,-26.0,-2.0,3.0
705040.0,0.41272,-0.748047,-0.533203,-0.366211,-0.061035,0.244141,-26.0,-2.0,3.0
705071.0,0.412842,-0.748169,-0.532715,-0.488281,0.061035,0.0,-24.0,-1.0,0.0
705102.0,0.412476,-0.747192,-0.532715,-0.488281,0.061035,0.183105,-24.0,-1.0,0.0
705132.0,0.41272,-0.748779,-0.531372,-0.549316,0.244141,0.183105,-24.0,-1.0,0.0
705163.0,0.412598,-0.747192,-0.53125,-0.488281,0.0,0.12207,-24.0,-1.0,0.0
705194.0,0.41272,-0.749512,-0.531982,-0.488281,0.12207,0.183105,-26.0,-8.0,-1.0
705225.0,0.413208,-0.747681,-0.531494,-0.488281,0.0,0.183105,-26.0,-8.0,-1.0
705255.0,0.411865,-0.749023,-0.531982,-0.366211,0.061035,0.061035,-26.0,-8.0,-1.0
705287.0,0.412964,-0.747681,-0.532593,-0.488281,0.183105,0.061035,-26.0,-5.0,5.0
705318.0,0.413696,-0.748657,-0.530884,-0.427246,0.061035,0.12207,-26.0,-5.0,5.0
705348.0,0.41394,-0.748291,-0.531494,-0.366211,0.061035,0.12207,-26.0,-5.0,5.0
705379.0,0.411743,-0.748901,-0.531006,-0.488281,-0.061035,0.183105,-24.0,-2.0,3.0
705410.0,0.414917,-0.746826,-0.531616,-0.610352,-0.061035,0.183105,-24.0,-2.0,3.0
705441.0,0.413208,-0.749023,-0.532104,-0.549316,-0.244141,0.244141,-24.0,-2.0,3.0
705473.0,0.415894,-0.74939,-0.530884,-0.793457,-0.488281,0.061035,-27.0,-7.0,0.0
705504.0,0.411377,-0.747803,-0.533081,-0.732422,-0.793457,0.12207,-27.0,-7.0,0.0
705535.0,0.412598,-0.749023,-0.531738,-0.793457,-0.305176,0.061035,-27.0,-7.0,0.0
705566.0,0.414673,-0.747192,-0.530518,-0.732422,-0.549316,0.0,-26.0,-3.0,-1.0
705597.0,0.410156,-0.748535,-0.531006,-0.549316,-0.305176,0.183105,-26.0,-3.0,-1.0
705628.0,0.413208,-0.749268,-0.530762,-0.610352,0.12207,0.0,-26.0,-3.0,-1.0
705659.0,0.415039,-0.747437,-0.527954,-0.427246,-0.12207,0.183105,-24.0,-4.0,5.0
705690.0,0.411865,-0.75061,-0.536377,-0.366211,0.244141,0.427246,-24.0,-4.0,5.0
705720.0,0.418213,-0.744385,-0.526855,-0.549316,0.549316,0.061035,-24.0,-4.0,5.0
705750.0,0.411987,-0.750732,-0.532104,-0.183105,-0.244141,0.305176,-24.0,-4.0,5.0
705782.0,0.411865,-0.747681,-0.532715,-0.549316,0.244141,0.061035,-24.0,-2.0,3.0
705813.0,0.418335,-0.747681,-0.527344,-0.366211,0.732422,0.183105,-24.0,-2.0,3.0
705843.0,0.412598,-0.748657,-0.531738,-0.305176,-0.12207,0.244141,-24.0,-2.0,3.0
705874.0,0.41394,-0.75061,-0.529663,-0.488281,0.244141,0.061035,-25.0,-2.0,0.0
705905.0,0.415283,-0.748047,-0.53125,-0.488281,-0.12207,0.061035,-25.0,-2.0,0.0
705936.0,0.414185,-0.746826,-0.532593,-0.427246,0.061035,0.12207,-25.0,-2.0,0.0
705967.0,0.414673,-0.748657,-0.528809,-0.488281,-0.061035,0.183105,-26.0,-3.0,0.0
705998.0,0.413574,-0.74939,-0.531494,-0.549316,0.061035,0.183105,-26.0,-3.0,0.0
706029.0,0.413696,-0.747192,-0.530762,-0.610352,0.183105,0.0,-26.0,-3.0,0.0
706061.0,0.413452,-0.750122,-0.530273,-0.427246,-0.061035,0.12207,-26.0,-6.0,7.0
706092.0,0.413452,-0.748047,-0.530884,-0.549316,0.12207,0.183105,-26.0,-6.0,7.0
706123.0,0.414185,-0.748291,-0.531494,-0.488281,0.12207,0.12207,-26.0,-6.0,7.0
706155.0,0.414185,-0.748169,-0.530396,-0.427246,0.12207,0.183105,-23.0,-4.0,0.0
706186.0,0.414307,-0.749146,-0.532349,-0.427246,0.061035,0.183105,-23.0,-4.0,0.0
706216.0,0.413818,-0.748047,-0.530151,-0.549316,0.183105,0.12207,-23.0,-4.0,0.0
706247.0,0.414551,-0.746216,-0.530151,-0.488281,-0.061035,0.12207,-26.0,-3.0,0.0
706278.0,0.413208,-0.747192,-0.532104,-0.427246,0.061035,0.12207,-26.0,-3.0,0.0
706308.0,0.414551,-0.748779,-0.531372,-0.488281,0.244141,0.12207,-26.0,-3.0,0.0
706338.0,0.414062,-0.747681,-0.529663,-0.427246,0.183105,0.061035,-26.0,-3.0,0.0
706369.0,0.413574,-0.747803,-0.531494,-0.488281,0.183105,0.183105,-23.0,-4.0,2.0
706400.0,0.413818,-0.74939,-0.530396,-0.488281,0.12207,0.183105,-23.0,-4.0,2.0
706430.0,0.415283,-0.748413,-0.530762,-0.549316,0.0,0.183105,-23.0,-4.0,2.0
706461.0,0.41394,-0.748779,-0.530762,-0.488281,0.061035,0.12207,-24.0,-5.0,0.0
706492.0,0.413696,-0.748413,-0.532104,-0.366211,0.061035,0.12207,-24.0,-5.0,0.0
706522.0,0.415283,-0.748657,-0.528564,-0.549316,0.12207,0.061035,-24.0,-5.0,0.0
706553.0,0.413574,-0.748535,-0.530273,-0.366211,0.061035,0.12207,-23.0,-8.0,0.0
706584.0,0.41333,-0.747681,-0.531006,-0.549316,0.061035,0.12207,-23.0,-8.0,0.0
706614.0,0.414307,-0.747803,-0.530029,-0.366211,0.12207,0.12207,-23.0,-8.0,0.0
706645.0,0.413574,-0.748169,-0.531128,-0.488281,0.12207,0.12207,-26.0,-4.0,3.0
706676.0,0.41394,-0.747437,-0.530273,-0.427246,0.12207,0.183105,-26.0,-4.0,3.0
706706.0,0.412598,-0.748657,-0.53064,-0.427246,0.183105,0.244141,-26.0,-4.0,3.0
706736.0,0.415405,-0.747314,-0.532227,-0.488281,0.183105,0.061035,-26.0,-4.0,3.0
706767.0,0.414673,-0.748657,-0.530518,-0.366211,0.061035,0.12207,-26.0,-5.0,0.0
706798.0,0.414062,-0.749878,-0.529907,-0.488281,0.12207,0.12207,-26.0,-5.0,0.0
706828.0,0.413696,-0.74646,-0.530518,-0.549316,0.183105,0.12207,-26.0,-5.0,0.0
706859.0,0.415161,-0.749023,-0.529541,-0.488281,0.244141,0.12207,-24.0,-5.0,1.0
706890.0,0.414307,-0.749023,-0.530884,-0.488281,0.061035,0.12207,-24.0,-5.0,1.0
706920.0,0.413818,-0.747192,-0.530518,-0.549316,0.061035,0.183105,-24.0,-5.0,1.0
706951.0,0.414795,-0.746948,-0.530884,-0.427246,0.061035,0.12207,-26.0,-5.0,7.0
706982.0,0.414307,-0.748413,-0.529541,-0.488281,0.061035,0.061035,-26.0,-5.0,7.0
707012.0,0.413452,-0.748657,-0.532227,-0.427246,0.061035,0.12207,-26.0,-5.0,7.0
707043.0,0.414185,-0.748535,-0.53125,-0.488281,0.183105,0.12207,-27.0,-3.0,0.0
707074.0,0.414673,-0.747803,-0.530273,-0.488281,0.12207,0.12207,-27.0,-3.0,0.0
707105.0,0.413208,-0.74939,-0.532104,-0.427246,0.12207,0.12207,-27.0,-3.0,0.0
707136.0,0.414307,-0.746338,-0.530396,-0.427246,0.366211,0.061035,-26.0,-5.0,0.0
707167.0,0.412842,-0.749268,-0.53125,-0.366211,0.12207,0.183105,-26.0,-5.0,0.0
707197.0,0.414795,-0.748291,-0.530518,-0.488281,0.244141,0.183105,-26.0,-5.0,0.0
707227.0,0.414551,-0.746948,-0.53125,-0.549316,0.183105,0.061035,-26.0,-5.0,0.0
707258.0,0.413696,-0.748047,-0.532104,-0.427246,0.061035,0.12207,-25.0,-4.0,7.0
707289.0,0.413818,-0.748413,-0.530029,-0.427246,0.12207,0.061035,-25.0,-4.0,7.0
707319.0,0.41333,-0.748901,-0.529663,-0.427246,0.12207,0.061035,-25.0,-4.0,7.0
707350.0,0.414185,-0.749023,-0.530762,-0.427246,0.12207,0.183105,-26.0,-5.0,3.0
707381.0,0.414185,-0.747803,-0.531128,-0.488281,0.061035,0.061035,-26.0,-5.0,3.0
707411.0,0.41333,-0.748169,-0.530396,-0.427246,0.12207,0.183105,-26.0,-5.0,3.0
707442.0,0.413818,-0.748657,-0.53186,-0.427246,0.183105,0.061035,-25.0,-4.0,1.0
707473.0,0.414429,-0.747925,-0.529785,-0.488281,0.061035,0.12207,-25.0,-4.0,1.0
707504.0,0.414307,-0.747925,-0.531006,-0.549316,0.12207,0.183105,-25.0,-4.0,1.0
707536.0,0.41333,-0.748901,-0.530273,-0.488281,0.12207,0.12207,-26.0,-5.0,5.0
707567.0,0.413818,-0.746948,-0.530273,-0.427246,0.061035,0.12207,-26.0,-5.0,5.0
707598.0,0.413208,-0.748535,-0.530884,-0.488281,0.12207,0.12207,-26.0,-5.0,5.0
707629.0,0.414673,-0.747437,-0.531006,-0.610352,0.12207,0.0,-24.0,-5.0,0.0
707660.0,0.41394,-0.748169,-0.529419,-0.427246,0.0,0.12207,-24.0,-5.0,0.0
707690.0,0.414795,-0.749634,-0.529663,-0.488281,0.061035,0.12207,-24.0,-5.0,0.0
707722.0,0.414062,-0.747925,-0.530884,-0.549316,0.12207,0.12207,-25.0,-5.0,0.0
707753.0,0.414551,-0.747437,-0.530151,-0.488281,0.12207,0.244141,-25.0,-5.0,0.0
707783.0,0.414185,-0.748657,-0.530273,-0.549316,0.12207,0.183105,-25.0,-5.0,0.0
707813.0,0.414062,-0.74939,-0.53064,-0.488281,0.12207,0.183105,-25.0,-5.0,0.0
707844.0,0.413696,-0.748047,-0.531372,-0.366211,0.061035,0.183105,-25.0,-3.0,4.0
707875.0,0.414307,-0.747314,-0.530518,-0.549316,0.061035,0.12207,-25.0,-3.0,4.0
707905.0,0.413086,-0.749146,-0.530273,-0.427246,0.12207,0.12207,-25.0,-3.0,4.0
707937.0,0.414062,-0.749023,-0.530029,-0.488281,0.12207,0.061035,-24.0,-4.0,3.0
707968.0,0.415771,-0.749512,-0.529663,-0.427246,0.183105,0.12207,-24.0,-4.0,3.0
707998.0,0.413452,-0.748779,-0.531372,-0.305176,0.061035,0.183105,-24.0,-4.0,3.0
708030.0,0.413574,-0.747803,-0.53064,-0.549316,0.244141,0.061035,-23.0,-4.0,0.0
708061.0,0.414795,-0.747437,-0.528809,-0.427246,0.183105,0.12207,-23.0,-4.0,0.0
708091.0,0.412598,-0.749146,-0.531616,-0.366211,0.12207,0.244141,-23.0,-4.0,0.0
708122.0,0.414551,-0.748413,-0.531128,-0.549316,0.244141,0.061035,-26.0,-4.0,2.0
708153.0,0.414185,-0.748047,-0.530762,-0.427246,0.061035,0.061035,-26.0,-4.0,2.0
708184.0,0.413574,-0.748413,-0.531006,-0.427246,0.061035,0.12207,-26.0,-4.0,2.0
708215.0,0.414185,-0.747559,-0.532227,-0.427246,0.12207,0.061035,-23.0,-7.0,3.0
708246.0,0.41333,-0.74939,-0.530884,-0.427246,0.061035,0.12207,-23.0,-7.0,3.0
708277.0,0.414062,-0.747314,-0.529785,-0.488281,0.0,0.12207,-23.0,-7.0,3.0
708307.0,0.413818,-0.748901,-0.529297,-0.488281,0.12207,0.12207,-23.0,-7.0,3.0
708339.0,0.413086,-0.748047,-0.531128,-0.488281,0.12207,0.061035,-26.0,-2.0,3.0
708370.0,0.41394,-0.747803,-0.529297,-0.488281,0.0,0.12207,-26.0,-2.0,3.0
708400.0,0.413452,-0.748779,-0.531006,-0.427246,0.12207,0.183105,-26.0,-2.0,3.0
708431.0,0.414795,-0.748413,-0.530396,-0.549316,0.12207,0.12207,-26.0,-6.0,0.0
708462.0,0.414185,-0.748047,-0.53064,-0.427246,0.061035,0.12207,-26.0,-6.0,0.0
708493.0,0.414185,-0.749146,-0.53186,-0.488281,0.12207,0.061035,-26.0,-6.0,0.0
708525.0,0.41272,-0.748779,-0.529663,-0.488281,0.061035,0.12207,-26.0,-9.0,0.0
708556.0,0.413574,-0.749512,-0.531372,-0.488281,0.12207,0.12207,-26.0,-9.0,0.0
708587.0,0.414795,-0.74707,-0.530762,-0.427246,0.244141,0.0,-26.0,-9.0,0.0
708619.0,0.41272,-0.750122,-0.531738,-0.366211,0.305176,0.183105,-26.0,-5.0,5.0
708650.0,0.41333,-0.749512,-0.529785,-0.488281,0.244141,-0.061035,-26.0,-5.0,5.0
708681.0,0.412354,-0.746704,-0.530151,-0.488281,0.305176,0.12207,-26.0,-5.0,5.0
708713.0,0.41333,-0.74646,-0.53186,-0.427246,0.427246,0.061035,-25.0,-4.0,-1.0
708744.0,0.41333,-0.750732,-0.529175,-0.183105,0.732422,0.305176,-25.0,-4.0,-1.0
708775.0,0.41394,-0.747192,-0.533569,-0.305176,0.488281,0.183105,-25.0,-4.0,-1.0
708806.0,0.417847,-0.747559,-0.527222,-0.305176,0.732422,0.366211,-26.0,-4.0,1.0
708837.0,0.412231,-0.747192,-0.533203,-0.305176,-0.12207,0.12207,-26.0,-4.0,1.0
708867.0,0.412842,-0.74939,-0.531982,-0.549316,0.427246,0.12207,-26.0,-4.0,1.0
708897.0,0.416748,-0.74646,-0.530518,-0.427246,-0.061035,-0.061035,-26.0,-4.0,1.0
708928.0,0.412231,-0.748535,-0.531982,-0.305176,-0.061035,0.244141,-25.0,-6.0,4.0
708959.0,0.413818,-0.750732,-0.531494,-0.671387,-0.061035,-0.061035,-25.0,-6.0,4.0
708990.0,0.413696,-0.74585,-0.531738,-0.427246,-0.12207,0.183105,-25.0,-6.0,4.0
709021.0,0.411499,-0.750854,-0.531982,-0.366211,0.0,0.12207,-25.0,-4.0,0.0
709052.0,0.415527,-0.746826,-0.530151,-0.610352,0.244141,0.061035,-25.0,-4.0,0.0
709083.0,0.413696,-0.746704,-0.531006,-0.427246,-0.061035,0.183105,-25.0,-4.0,0.0
709114.0,0.413086,-0.749756,-0.531982,-0.366211,0.061035,0.244141,-22.0,-5.0,-3.0
709145.0,0.41333,-0.745972,-0.531616,-0.488281,0.0,0.0,-22.0,-5.0,-3.0
709175.0,0.413818,-0.749512,-0.531982,-0.488281,0.061035,0.244141,-22.0,-5.0,-3.0
709207.0,0.415039,-0.746826,-0.530762,-0.610352,0.061035,0.12207,-25.0,-5.0,-2.0
709238.0,0.414062,-0.747559,-0.531372,-0.366211,0.061035,0.244141,-25.0,-5.0,-2.0
709269.0,0.41333,-0.750366,-0.531006,-0.427246,0.061035,0.12207,-25.0,-5.0,-2.0
709300.0,0.414062,-0.747803,-0.531006,-0.488281,0.0,0.0,-27.0,-4.0,-2.0
709332.0,0.41333,-0.749023,-0.530029,-0.427246,-0.244141,0.244141,-27.0,-4.0,-2.0
709363.0,0.415527,-0.746582,-0.531128,-0.610352,-0.183105,0.12207,-27.0,-4.0,-2.0
709394.0,0.415161,-0.746948,-0.529907,-0.549316,-0.366211,0.12207,-26.0,-4.0,0.0
709425.0,0.413818,-0.750488,-0.530029,-0.549316,-0.488281,0.183105,-26.0,-4.0,0.0
709455.0,0.414307,-0.747803,-0.530151,-0.915527,-0.854492,0.0,-26.0,-4.0,0.0
709485.0,0.412598,-0.746704,-0.532227,-0.976562,-0.793457,0.183105,-26.0,-4.0,0.0
709516.0,0.412964,-0.749023,-0.529053,-0.488281,-0.305176,0.183105,-26.0,-4.0,0.0
709547.0,0.415283,-0.749268,-0.530884,-0.488281,-0.061035,0.061035,-26.0,-4.0,0.0
709577.0,0.413086,-0.749023,-0.529663,-0.427246,0.12207,0.0,-26.0,-4.0,0.0
709609.0,0.412598,-0.746826,-0.532593,-0.305176,0.671387,0.183105,-24.0,-5.0,2.0
709640.0,0.416992,-0.749756,-0.527466,-0.427246,0.610352,0.061035,-24.0,-5.0,2.0
709671.0,0.412109,-0.749146,-0.532104,-0.244141,0.427246,0.244141,-24.0,-5.0,2.0
709702.0,0.416504,-0.747437,-0.529785,-0.427246,0.854492,0.183105,-26.0,-7.0,3.0
709733.0,0.416748,-0.74707,-0.528809,-0.305176,0.366211,0.12207,-26.0,-7.0,3.0
709763.0,0.412842,-0.748779,-0.532471,-0.366211,0.12207,0.244141,-26.0,-7.0,3.0
709794.0,0.414307,-0.749146,-0.529785,-0.549316,0.183105,0.0,-28.0,-6.0,-2.0
709825.0,0.414917,-0.746826,-0.531372,-0.427246,0.0,0.12207,-28.0,-6.0,-2.0
709856.0,0.413086,-0.748169,-0.53064,-0.244141,0.183105,-0.061035,-28.0,-6.0,-2.0
709888.0,0.412476,-0.747559,-0.533447,-0.366211,0.671387,0.183105,-25.0,-5.0,2.0
709920.0,0.413452,-0.747314,-0.528564,-0.305176,0.427246,-0.183105,-25.0,-5.0,2.0
709950.0,0.411255,-0.749268,-0.536133,-0.183105,0.488281,0.244141,-25.0,-5.0,2.0
709981.0,0.41626,-0.748535,-0.528198,-0.488281,0.854492,-0.061035,-25.0,-5.0,2.0
710012.0,0.412109,-0.746094,-0.532349,-0.244141,0.305176,0.183105,-23.0,-5.0,-1.0
710043.0,0.414429,-0.751465,-0.531738,-0.366211,0.549316,0.12207,-23.0,-5.0,-1.0
710073.0,0.415283,-0.747681,-0.530273,-0.488281,0.366211,-0.061035,-23.0,-5.0,-1.0
710105.0,0.413208,-0.746826,-0.532471,-0.610352,0.12207,0.12207,-27.0,-5.0,1.0
710136.0,0.414307,-0.745972,-0.532349,-0.244141,0.061035,0.061035,-27.0,-5.0,1.0
710166.0,0.410645,-0.748779,-0.534424,-0.183105,0.793457,0.183105,-27.0,-5.0,1.0
710197.0,0.414429,-0.752441,-0.5271,-0.366211,0.549316,0.061035,-26.0,-4.0,2.0
710228.0,0.414917,-0.744751,-0.533447,-0.366211,0.305176,0.12207,-26.0,-4.0,2.0
710259.0,0.414551,-0.748779,-0.529907,-0.366211,0.12207,0.12207,-26.0,-4.0,2.0
710290.0,0.412109,-0.745117,-0.533936,-0.488281,-0.183105,0.305176,-27.0,-4.0,-1.0
710321.0,0.414062,-0.752197,-0.529297,-0.610352,0.12207,0.244141,-27.0,-4.0,-1.0
710351.0,0.412842,-0.746704,-0.532593,-0.610352,-0.488281,-0.061035,-27.0,-4.0,-1.0
710383.0,0.411743,-0.748413,-0.533569,-0.610352,0.0,0.244141,-23.0,-7.0,5.0
710414.0,0.413086,-0.746948,-0.531982,-0.427246,0.366211,0.244141,-23.0,-7.0,5.0
710444.0,0.415283,-0.748413,-0.529419,-0.549316,0.244141,0.183105,-23.0,-7.0,5.0
710476.0,0.413452,-0.748901,-0.531616,-0.610352,-0.305176,-0.061035,-26.0,-5.0,0.0
710507.0,0.411499,-0.748169,-0.532349,-0.488281,0.0,0.12207,-26.0,-5.0,0.0
710538.0,0.41272,-0.749878,-0.529785,-0.549316,-0.061035,-0.061035,-26.0,-5.0,0.0
710569.0,0.412964,-0.744385,-0.53186,-0.488281,0.061035,0.183105,-26.0,-5.0,0.0
710601.0,0.412598,-0.752441,-0.53186,-0.12207,0.427246,0.427246,-24.0,-4.0,-1.0
710632.0,0.414551,-0.746704,-0.531128,-0.488281,0.488281,0.244141,-24.0,-4.0,-1.0
710663.0,0.416016,-0.749512,-0.530396,-0.427246,0.0,0.183105,-24.0,-4.0,-1.0
710695.0,0.41272,-0.747437,-0.533691,-0.488281,-0.183105,0.0,-25.0,-5.0,5.0
710727.0,0.413086,-0.747314,-0.533813,-0.549316,0.12207,0.12207,-25.0,-5.0,5.0
710759.0,0.413696,-0.746704,-0.531494,-0.427246,0.183105,0.061035,-25.0,-5.0,5.0
710790.0,0.412354,-0.751221,-0.528564,-0.305176,0.12207,0.0,-27.0,-4.0,3.0
710821.0,0.411865,-0.749146,-0.532715,-0.427246,0.12207,0.12207,-27.0,-4.0,3.0
710852.0,0.414551,-0.745361,-0.531006,-0.610352,0.183105,0.061035,-27.0,-4.0,3.0
710884.0,0.413208,-0.748779,-0.532349,-0.366211,0.061035,0.305176,-25.0,-7.0,4.0
710915.0,0.411621,-0.750366,-0.53125,-0.549316,0.12207,0.061035,-25.0,-7.0,4.0
710945.0,0.412842,-0.746216,-0.532837,-0.549316,0.244141,0.12207,-25.0,-7.0,4.0
710977.0,0.413452,-0.748047,-0.530273,-0.305176,0.12207,0.183105,-26.0,-2.0,4.0
711008.0,0.411865,-0.749146,-0.534058,-0.488281,0.244141,0.12207,-26.0,-2.0,4.0
711039.0,0.414185,-0.746216,-0.530762,-0.549316,0.305176,0.061035,-26.0,-2.0,4.0
711071.0,0.412598,-0.748779,-0.530884,-0.244141,0.061035,0.183105,-24.0,-3.0,0.0
711103.0,0.411987,-0.749512,-0.533203,-0.610352,0.427246,0.0,-24.0,-3.0,0.0
711134.0,0.416992,-0.745972,-0.530518,-0.305176,0.12207,0.061035,-24.0,-3.0,0.0
711165.0,0.410645,-0.750366,-0.532104,-0.244141,-0.061035,0.183105,-24.0,-5.0,3.0
711196.0,0.412109,-0.749512,-0.533447,-0.671387,0.488281,0.061035,-24.0,-5.0,3.0
711227.0,0.415405,-0.745728,-0.530762,-0.366211,0.244141,0.061035,-24.0,-5.0,3.0
711258.0,0.411499,-0.748901,-0.532593,-0.305176,0.0,0.244141,-24.0,-5.0,3.0
711290.0,0.412598,-0.747192,-0.532959,-0.549316,0.183105,-0.061035,-24.0,-5.0,-2.0
711321.0,0.414185,-0.747192,-0.531494,-0.488281,0.183105,0.183105,-24.0,-5.0,-2.0
711352.0,0.41272,-0.749023,-0.534058,-0.549316,0.12207,0.244141,-24.0,-5.0,-2.0
711384.0,0.414307,-0.747314,-0.531494,-0.610352,0.12207,0.12207,-26.0,-4.0,2.0
711416.0,0.413208,-0.748657,-0.531006,-0.427246,0.0,0.12207,-26.0,-4.0,2.0
711446.0,0.412842,-0.748291,-0.532715,-0.549316,0.0,0.061035,-26.0,-4.0,2.0
711478.0,0.413696,-0.747314,-0.531738,-0.427246,0.183105,0.061035,-23.0,-6.0,0.0
711509.0,0.411621,-0.747803,-0.534302,-0.305176,0.061035,0.183105,-23.0,-6.0,0.0
711540.0,0.415161,-0.747681,-0.53064,-0.549316,0.366211,0.0,-23.0,-6.0,0.0
711572.0,0.412842,-0.747314,-0.531128,-0.305176,-0.061035,0.183105,-25.0,-2.0,-3.0
711605.0,0.411011,-0.748657,-0.533569,-0.549316,0.183105,0.061035,-25.0,-2.0,-3.0
711636.0,0.415039,-0.746704,-0.531006,-0.488281,0.244141,0.12207,-25.0,-2.0,-3.0
711668.0,0.411987,-0.749512,-0.533569,-0.244141,0.061035,0.183105,-25.0,-4.0,-1.0
711699.0,0.413818,-0.747314,-0.53186,-0.549316,0.305176,0.183105,-25.0,-4.0,-1.0
711730.0,0.413086,-0.746948,-0.53125,-0.366211,0.12207,0.061035,-25.0,-4.0,-1.0
711762.0,0.411621,-0.748413,-0.532959,-0.488281,0.12207,0.061035,-26.0,-5.0,5.0
711793.0,0.413818,-0.746216,-0.531616,-0.427246,0.12207,0.061035,-26.0,-5.0,5.0
711825.0,0.412476,-0.748169,-0.532715,-0.366211,-0.12207,0.183105,-26.0,-5.0,5.0
711857.0,0.41272,-0.748657,-0.53186,-0.488281,0.12207,0.061035,-25.0,-4.0,4.0
711888.0,0.41272,-0.746582,-0.53186,-0.488281,-0.12207,0.12207,-25.0,-4.0,4.0
711919.0,0.411255,-0.749878,-0.53186,-0.488281,0.0,0.12207,-25.0,-4.0,4.0
711951.0,0.413818,-0.746338,-0.533325,-0.610352,-0.061035,0.12207,-24.0,-5.0,0.0
711982.0,0.413452,-0.748901,-0.530762,-0.366211,0.244141,0.183105,-24.0,-5.0,0.0
712013.0,0.412476,-0.748413,-0.531982,-0.427246,-0.061035,0.183105,-24.0,-5.0,0.0
712044.0,0.413208,-0.747437,-0.531738,-0.488281,0.183105,0.061035,-24.0,-5.0,0.0
712075.0,0.413208,-0.74585,-0.531982,-0.427246,-0.061035,0.12207,-26.0,-4.0,0.0
712106.0,0.413696,-0.749878,-0.531738,-0.488281,0.12207,0.061035,-26.0,-4.0,0.0
712136.0,0.413452,-0.747803,-0.532349,-0.549316,0.061035,0.12207,-26.0,-4.0,0.0
712167.0,0.41272,-0.747559,-0.532471,-0.366211,0.061035,0.061035,-26.0,-3.0,3.0
712198.0,0.41272,-0.748657,-0.532959,-0.488281,0.12207,0.183105,-26.0,-3.0,3.0
712229.0,0.413574,-0.748657,-0.530518,-0.488281,0.12207,0.12207,-26.0,-3.0,3.0
712261.0,0.412598,-0.747437,-0.53125,-0.488281,0.061035,0.12207,-25.0,-4.0,0.0
712292.0,0.413452,-0.748779,-0.531616,-0.549316,0.0,0.061035,-25.0,-4.0,0.0
712323.0,0.412109,-0.746704,-0.532715,-0.549316,0.061035,0.12207,-25.0,-4.0,0.0
712355.0,0.41394,-0.748169,-0.531738,-0.366211,-0.061035,0.12207,-23.0,-5.0,1.0
712386.0,0.411621,-0.747681,-0.532227,-0.488281,-0.061035,0.12207,-23.0,-5.0,1.0
712417.0,0.413574,-0.747314,-0.532959,-0.549316,0.183105,0.12207,-23.0,-5.0,1.0
712450.0,0.41333,-0.746826,-0.530884,-0.427246,-0.061035,0.12207,-26.0,-4.0,1.0
712481.0,0.410645,-0.749023,-0.533203,-0.427246,0.183105,0.12207,-26.0,-4.0,1.0
712511.0,0.414307,-0.746582,-0.530884,-0.427246,0.183105,0.12207,-26.0,-4.0,1.0
712543.0,0.412842,-0.747803,-0.531494,-0.427246,0.0,0.12207,-26.0,-6.0,4.0
712574.0,0.414062,-0.748657,-0.532104,-0.488281,0.366211,0.12207,-26.0,-6.0,4.0
712605.0,0.413452,-0.74707,-0.531494,-0.427246,0.12207,0.183105,-26.0,-6.0,4.0
712636.0,0.413086,-0.748413,-0.533081,-0.427246,0.12207,0.183105,-26.0,-6.0,4.0
712668.0,0.413452,-0.747559,-0.532715,-0.549316,0.183105,0.061035,-26.0,-5.0,0.0
712699.0,0.41272,-0.748413,-0.530884,-0.366211,0.183105,0.183105,-26.0,-5.0,0.0
712730.0,0.414551,-0.749146,-0.531128,-0.488281,0.12207,0.061035,-26.0,-5.0,0.0
712762.0,0.413086,-0.746704,-0.533691,-0.427246,0.061035,0.183105,-25.0,-4.0,5.0
712793.0,0.413086,-0.748413,-0.530518,-0.488281,0.12207,0.12207,-25.0,-4.0,5.0
712824.0,0.412476,-0.747925,-0.533203,-0.488281,0.12207,0.244141,-25.0,-4.0,5.0
712856.0,0.414185,-0.747803,-0.530884,-0.488281,0.12207,0.12207,-26.0,-7.0,0.0
712887.0,0.411987,-0.748535,-0.532593,-0.427246,0.061035,0.061035,-26.0,-7.0,0.0
712917.0,0.412354,-0.74939,-0.530762,-0.488281,0.244141,0.183105,-26.0,-7.0,0.0
712949.0,0.414185,-0.745972,-0.531128,-0.488281,0.12207,0.12207,-26.0,-5.0,4.0
712980.0,0.413208,-0.749146,-0.532715,-0.427246,0.061035,0.12207,-26.0,-5.0,4.0
713011.0,0.413208,-0.748047,-0.53125,-0.549316,0.12207,0.12207,-26.0,-5.0,4.0
713043.0,0.413574,-0.746094,-0.531494,-0.549316,0.12207,0.183105,-25.0,-6.0,4.0
713074.0,0.412354,-0.74939,-0.532837,-0.488281,0.061035,0.183105,-25.0,-6.0,4.0
713105.0,0.413696,-0.74707,-0.531494,-0.549316,0.183105,0.183105,-25.0,-6.0,4.0
713137.0,0.412598,-0.747925,-0.53125,-0.366211,0.0,0.12207,-22.0,-5.0,1.0
713168.0,0.413696,-0.748657,-0.532715,-0.488281,0.12207,0.12207,-22.0,-5.0,1.0
713199.0,0.411987,-0.747437,-0.530518,-0.488281,0.061035,0.12207,-22.0,-5.0,1.0
713231.0,0.413208,-0.748291,-0.532227,-0.427246,0.12207,0.12207,-26.0,-4.0,3.0
713262.0,0.412842,-0.747437,-0.531494,-0.488281,0.183105,0.061035,-26.0,-4.0,3.0
713293.0,0.413208,-0.748413,-0.531494,-0.427246,0.12207,0.12207,-26.0,-4.0,3.0
713324.0,0.411011,-0.747559,-0.532715,-0.488281,0.12207,0.12207,-26.0,-4.0,3.0
713356.0,0.415283,-0.748047,-0.531494,-0.549316,0.183105,0.12207,-28.0,-5.0,0.0
713387.0,0.412842,-0.746704,-0.532715,-0.427246,0.061035,0.183105,-28.0,-5.0,0.0
713417.0,0.413086,-0.749146,-0.531494,-0.549316,0.183105,0.183105,-28.0,-5.0,0.0
713449.0,0.414185,-0.746826,-0.533081,-0.427246,0.061035,0.12207,-26.0,-1.0,1.0
713480.0,0.411987,-0.747803,-0.530884,-0.427246,0.061035,0.183105,-26.0,-1.0,1.0
713511.0,0.413208,-0.748169,-0.531006,-0.549316,0.244141,-0.061035,-26.0,-1.0,1.0
713544.0,0.413574,-0.747925,-0.531738,-0.366211,0.0,0.12207,-24.0,-4.0,6.0
713576.0,0.412842,-0.748901,-0.533447,-0.549316,0.183105,0.061035,-24.0,-4.0,6.0
713608.0,0.413818,-0.746582,-0.532715,-0.488281,0.061035,0.061035,-24.0,-4.0,6.0
713640.0,0.412964,-0.748657,-0.531616,-0.427246,0.0,0.12207,-26.0,-5.0,0.0
713671.0,0.41333,-0.747192,-0.532959,-0.549316,0.12207,0.12207,-26.0,-5.0,0.0
713702.0,0.413086,-0.748047,-0.530273,-0.488281,0.183105,0.183105,-26.0,-5.0,0.0
713734.0,0.414062,-0.748291,-0.533081,-0.488281,0.061035,0.183105,-24.0,-4.0,3.0
713768.0,0.41333,-0.746948,-0.531982,-0.427246,0.183105,0.12207,-24.0,-4.0,3.0
713800.0,0.414429,-0.749268,-0.531738,-0.427246,0.061035,0.183105,-24.0,-4.0,3.0
713832.0,0.412964,-0.747681,-0.532227,-0.427246,0.061035,0.061035,-26.0,-4.0,1.0
713863.0,0.412598,-0.749023,-0.532837,-0.488281,0.12207,0.12207,-26.0,-4.0,1.0
713894.0,0.414551,-0.744751,-0.532349,-0.488281,0.12207,0.0,-26.0,-4.0,1.0
713926.0,0.413208,-0.751099,-0.530396,-0.366211,0.183105,0.244141,-23.0,-5.0,-3.0
713957.0,0.413818,-0.746948,-0.533325,-0.671387,-0.12207,0.0,-23.0,-5.0,-3.0
713988.0,0.41394,-0.747437,-0.531494,-0.427246,0.061035,0.244141,-23.0,-5.0,-3.0
714020.0,0.412842,-0.748779,-0.531494,-0.549316,0.061035,0.12207,-25.0,-3.0,-2.0
714051.0,0.412109,-0.747803,-0.530884,-0.549316,0.061035,0.061035,-25.0,-3.0,-2.0
714083.0,0.414307,-0.749756,-0.53064,-0.427246,0.061035,0.244141,-25.0,-3.0,-2.0
714115.0,0.415161,-0.745728,-0.531616,-0.488281,-0.183105,0.12207,-26.0,-7.0,-3.0
714146.0,0.413574,-0.749634,-0.530396,-0.488281,-0.305176,0.12207,-26.0,-7.0,-3.0
714177.0,0.413818,-0.746216,-0.533325,-0.854492,-0.610352,0.0,-26.0,-7.0,-3.0
714208.0,0.413086,-0.748657,-0.532104,-0.549316,-0.305176,0.244141,-26.0,-7.0,-3.0
714242.0,0.415039,-0.744629,-0.529297,-0.732422,-0.183105,-0.061035,-26.0,-3.0,1.0
714274.0,0.410889,-0.748901,-0.532593,-0.305176,-0.183105,0.244141,-26.0,-3.0,1.0
714306.0,0.412842,-0.74939,-0.53186,-0.488281,0.427246,0.061035,-26.0,-3.0,1.0
714339.0,0.415649,-0.745972,-0.529785,-0.488281,0.244141,0.183105,-27.0,-5.0,0.0
714371.0,0.413574,-0.749756,-0.532349,-0.305176,0.183105,0.183105,-27.0,-5.0,0.0
714403.0,0.414795,-0.746216,-0.529907,-0.610352,0.12207,0.0,-27.0,-5.0,0.0
714436.0,0.410645,-0.75061,-0.531738,-0.427246,0.0,0.183105,-23.0,-4.0,1.0
714467.0,0.413818,-0.747925,-0.53125,-0.488281,0.427246,0.0,-23.0,-4.0,1.0
714498.0,0.415283,-0.744873,-0.53064,-0.183105,0.244141,0.183105,-23.0,-4.0,1.0
714530.0,0.412109,-0.751587,-0.532471,-0.366211,0.366211,0.244141,-26.0,-4.0,0.0
714561.0,0.415405,-0.745728,-0.530762,-0.427246,0.305176,0.061035,-26.0,-4.0,0.0
714592.0,0.41272,-0.748901,-0.530151,-0.305176,0.12207,0.183105,-26.0,-4.0,0.0
714624.0,0.41333,-0.746826,-0.534546,-0.488281,0.183105,0.12207,-25.0,-4.0,-4.0
714656.0,0.414307,-0.748413,-0.529419,-0.366211,0.183105,0.183105,-25.0,-4.0,-4.0
714688.0,0.412842,-0.746704,-0.53186,-0.366211,0.244141,0.061035,-25.0,-4.0,-4.0
714721.0,0.414185,-0.748779,-0.530396,-0.366211,0.244141,0.12207,-24.0,-3.0,1.0
714753.0,0.411743,-0.746948,-0.533691,-0.427246,0.244141,0.061035,-24.0,-3.0,1.0
714784.0,0.41394,-0.748535,-0.530029,-0.427246,0.305176,0.183105,-24.0,-3.0,1.0
714817.0,0.413818,-0.747192,-0.532593,-0.427246,0.0,0.0,-27.0,-2.0,0.0
714849.0,0.414551,-0.75,-0.531738,-0.427246,0.061035,0.244141,-27.0,-2.0,0.0
714881.0,0.412842,-0.746948,-0.531372,-0.549316,-0.061035,-0.061035,-27.0,-2.0,0.0
714913.0,0.41272,-0.747192,-0.532715,-0.427246,0.0,0.183105,-26.0,-4.0,1.0
714944.0,0.415283,-0.748047,-0.530273,-0.549316,0.12207,0.061035,-26.0,-4.0,1.0
714975.0,0.413208,-0.747192,-0.53186,-0.488281,-0.061035,0.183105,-26.0,-4.0,1.0
715009.0,0.41272,-0.749146,-0.532837,-0.427246,-0.061035,0.183105,-25.0,-5.0,1.0
715040.0,0.417114,-0.74646,-0.529663,-0.488281,-0.12207,0.183105,-25.0,-5.0,1.0
715071.0,0.414551,-0.751221,-0.529175,-0.366211,-0.427246,0.244141,-25.0,-5.0,1.0
715103.0,0.414551,-0.744019,-0.531738,-0.976562,-1.037598,-0.12207,-26.0,-5.0,0.0
715134.0,0.411255,-0.748047,-0.533203,-0.488281,-0.610352,0.244141,-26.0,-5.0,0.0
715165.0,0.411499,-0.75061,-0.531738,-0.671387,-0.12207,-0.061035,-26.0,-5.0,0.0
715197.0,0.415894,-0.74646,-0.529175,-0.488281,0.061035,0.12207,-27.0,-6.0,0.0
715228.0,0.409546,-0.74939,-0.533691,-0.183105,0.183105,0.244141,-27.0,-6.0,0.0
715259.0,0.417358,-0.747681,-0.527222,-0.549316,0.854492,0.12207,-27.0,-6.0,0.0
715290.0,0.415283,-0.744263,-0.532349,-0.366211,-0.061035,0.061035,-27.0,-6.0,0.0
715322.0,0.410767,-0.752686,-0.530029,-0.549316,-0.061035,0.0,-25.0,-3.0,0.0
715353.0,0.412109,-0.747192,-0.531372,-0.488281,0.427246,0.061035,-25.0,-3.0,0.0
715384.0,0.415527,-0.748169,-0.530884,-0.244141,0.549316,0.366211,-25.0,-3.0,0.0
715416.0,0.414551,-0.746704,-0.529785,-0.12207,0.610352,0.183105,-27.0,-7.0,-1.0
715447.0,0.414673,-0.75061,-0.532104,-0.305176,0.610352,0.244141,-27.0,-7.0,-1.0
715478.0,0.415649,-0.746216,-0.530151,-0.427246,0.305176,0.061035,-27.0,-7.0,-1.0
715510.0,0.41333,-0.747681,-0.532104,-0.305176,0.0,0.12207,-23.0,-3.0,3.0
715541.0,0.412842,-0.748779,-0.532104,-0.488281,0.244141,0.183105,-23.0,-3.0,3.0
715572.0,0.413574,-0.747314,-0.531372,-0.427246,0.244141,0.12207,-23.0,-3.0,3.0
715604.0,0.41394,-0.748779,-0.531494,-0.244141,0.305176,0.183105,-25.0,-4.0,0.0
715635.0,0.413696,-0.747925,-0.532349,-0.427246,0.244141,0.12207,-25.0,-4.0,0.0
715666.0,0.414062,-0.745728,-0.531982,-0.427246,0.366211,0.12207,-25.0,-4.0,0.0
715698.0,0.413574,-0.748413,-0.530884,-0.366211,0.244141,0.061035,-24.0,-5.0,1.0
715729.0,0.413574,-0.748413,-0.531372,-0.549316,0.305176,0.061035,-24.0,-5.0,1.0
715760.0,0.413696,-0.74646,-0.531738,-0.549316,0.061035,0.183105,-24.0,-5.0,1.0
715792.0,0.412598,-0.748291,-0.531372,-0.610352,0.12207,0.244141,-25.0,-4.0,2.0
715823.0,0.41394,-0.747681,-0.530884,-0.488281,0.12207,0.12207,-25.0,-4.0,2.0
715854.0,0.413452,-0.74707,-0.532837,-0.488281,0.061035,0.183105,-25.0,-4.0,2.0
715886.0,0.413696,-0.748047,-0.53125,-0.366211,0.061035,0.061035,-26.0,-3.0,3.0
715917.0,0.414062,-0.747681,-0.531128,-0.427246,0.061035,0.061035,-26.0,-3.0,3.0
715948.0,0.412598,-0.748413,-0.53186,-0.488281,0.061035,0.061035,-26.0,-3.0,3.0
715979.0,0.414673,-0.746948,-0.531006,-0.488281,0.12207,0.061035,-26.0,-3.0,3.0
716011.0,0.413208,-0.749512,-0.532471,-0.488281,0.061035,0.12207,-26.0,-3.0,-3.0
716042.0,0.413208,-0.747437,-0.533813,-0.488281,0.305176,0.061035,-26.0,-3.0,-3.0
716073.0,0.413452,-0.748291,-0.528809,-0.366211,0.183105,0.12207,-26.0,-3.0,-3.0
716105.0,0.414307,-0.748901,-0.532837,-0.427246,0.183105,0.12207,-24.0,-4.0,-1.0
716136.0,0.413818,-0.74707,-0.530762,-0.488281,0.305176,0.12207,-24.0,-4.0,-1.0
716167.0,0.413208,-0.746704,-0.530884,-0.488281,0.12207,0.12207,-24.0,-4.0,-1.0
716199.0,0.412842,-0.749512,-0.532471,-0.366211,0.061035,0.244141,-25.0,-5.0,0.0
716230.0,0.413696,-0.748657,-0.531128,-0.427246,0.244141,0.12207,-25.0,-5.0,0.0
716261.0,0.414917,-0.74646,-0.53064,-0.427246,0.0,0.061035,-25.0,-5.0,0.0
716293.0,0.411133,-0.749878,-0.532349,-0.488281,0.061035,0.183105,-26.0,-4.0,2.0
716324.0,0.413574,-0.74585,-0.533325,-0.488281,0.305176,0.12207,-26.0,-4.0,2.0
716355.0,0.414307,-0.75,-0.530884,-0.305176,0.12207,0.183105,-26.0,-4.0,2.0
716387.0,0.413086,-0.747192,-0.533691,-0.488281,0.061035,0.12207,-24.0,-6.0,-1.0
716418.0,0.413086,-0.747925,-0.530762,-0.488281,0.0,0.183105,-24.0,-6.0,-1.0
716449.0,0.412476,-0.748535,-0.532959,-0.366211,0.0,0.12207,-24.0,-6.0,-1.0
716480.0,0.414673,-0.747559,-0.529785,-0.610352,0.244141,0.12207,-24.0,-7.0,1.0
716511.0,0.41333,-0.745117,-0.532227,-0.305176,0.0,0.244141,-24.0,-7.0,1.0
716542.0,0.412231,-0.750732,-0.53186,-0.610352,0.183105,0.12207,-24.0,-7.0,1.0
716574.0,0.412842,-0.745605,-0.532837,-0.488281,-0.061035,0.061035,-23.0,-3.0,4.0
716606.0,0.413086,-0.749023,-0.532349,-0.488281,0.12207,0.183105,-23.0,-3.0,4.0
716637.0,0.413574,-0.747681,-0.529907,-0.488281,0.061035,0.12207,-23.0,-3.0,4.0
716668.0,0.413574,-0.748169,-0.531616,-0.549316,0.061035,0.12207,-23.0,-3.0,4.0
716700.0,0.413818,-0.74707,-0.53186,-0.488281,0.061035,0.12207,-24.0,-4.0,1.0
716731.0,0.41394,-0.74707,-0.531738,-0.366211,0.061035,0.183105,-24.0,-4.0,1.0
716762.0,0.412842,-0.748779,-0.532104,-0.488281,0.12207,0.12207,-24.0,-4.0,1.0
716794.0,0.41394,-0.746704,-0.530884,-0.488281,0.061035,0.0,-25.0,-4.0,2.0
716825.0,0.413452,-0.747559,-0.530273,-0.488281,-0.061035,0.12207,-25.0,-4.0,2.0
716856.0,0.412109,-0.749023,-0.532837,-0.366211,0.12207,0.0,-25.0,-4.0,2.0
716888.0,0.413818,-0.747681,-0.532104,-0.488281,0.183105,0.12207,-23.0,-4.0,0.0
716919.0,0.413696,-0.747681,-0.532227,-0.305176,0.12207,0.183105,-23.0,-4.0,0.0
716950.0,0.413086,-0.748535,-0.531128,-0.427246,0.244141,0.12207,-23.0,-4.0,0.0
716982.0,0.414185,-0.747192,-0.529907,-0.488281,0.12207,0.061035,-24.0,-1.0,2.0
717013.0,0.414551,-0.747925,-0.531738,-0.427246,0.061035,0.12207,-24.0,-1.0,2.0
717044.0,0.41272,-0.749023,-0.53125,-0.488281,0.12207,0.061035,-24.0,-1.0,2.0
717076.0,0.415039,-0.747314,-0.530518,-0.488281,0.12207,0.061035,-25.0,-3.0,-4.0
717107.0,0.413696,-0.749146,-0.531616,-0.366211,0.12207,0.061035,-25.0,-3.0,-4.0
717138.0,0.412842,-0.748291,-0.532471,-0.488281,0.12207,0.183105,-25.0,-3.0,-4.0
717170.0,0.413696,-0.748413,-0.531372,-0.488281,0.061035,0.12207,-26.0,-5.0,-2.0
717201.0,0.41394,-0.747925,-0.53125,-0.427246,0.0,0.12207,-26.0,-5.0,-2.0
717232.0,0.412964,-0.747314,-0.530762,-0.488281,0.12207,0.061035,-26.0,-5.0,-2.0
717264.0,0.414062,-0.747314,-0.532349,-0.488281,0.183105,0.183105,-25.0,-4.0,2.0
717295.0,0.414307,-0.748779,-0.530518,-0.366211,0.244141,0.12207,-25.0,-4.0,2.0
717326.0,0.413452,-0.747925,-0.530762,-0.427246,-0.061035,0.12207,-25.0,-4.0,2.0
717357.0,0.413818,-0.747559,-0.533691,-0.427246,0.0,0.12207,-25.0,-4.0,2.0
717389.0,0.414185,-0.746704,-0.530884,-0.488281,0.183105,0.061035,-26.0,-4.0,-4.0
717420.0,0.412354,-0.747681,-0.532227,-0.366211,-0.061035,0.12207,-26.0,-4.0,-4.0
717451.0,0.414673,-0.75,-0.529785,-0.610352,0.244141,0.061035,-26.0,-4.0,-4.0
717483.0,0.414429,-0.745728,-0.531006,-0.427246,-0.12207,0.183105,-25.0,-5.0,5.0
717514.0,0.41333,-0.748779,-0.53064,-0.610352,0.183105,0.183105,-25.0,-5.0,5.0
717545.0,0.414551,-0.747803,-0.53125,-0.610352,0.0,0.061035,-25.0,-5.0,5.0
717577.0,0.411987,-0.747192,-0.531372,-0.488281,0.0,0.12207,-24.0,-5.0,0.0
717607.0,0.414062,-0.74939,-0.531982,-0.427246,0.12207,0.061035,-24.0,-5.0,0.0
717638.0,0.413574,-0.746826,-0.531128,-0.488281,0.0,0.183105,-24.0,-5.0,0.0
717670.0,0.413818,-0.747925,-0.532104,-0.549316,0.0,0.12207,-25.0,-2.0,1.0
717701.0,0.41333,-0.748779,-0.531616,-0.427246,0.12207,0.061035,-25.0,-2.0,1.0
717732.0,0.41333,-0.747192,-0.530518,-0.549316,0.0,0.061035,-25.0,-2.0,1.0
717764.0,0.414551,-0.748413,-0.531372,-0.488281,0.061035,0.12207,-24.0,-5.0,2.0
717795.0,0.412964,-0.747559,-0.531006,-0.488281,-0.061035,0.061035,-24.0,-5.0,2.0
717826.0,0.414429,-0.748291,-0.530029,-0.488281,0.183105,0.183105,-24.0,-5.0,2.0
717857.0,0.414429,-0.746216,-0.53125,-0.427246,0.183105,0.061035,-26.0,-3.0,3.0
717888.0,0.413574,-0.749756,-0.531372,-0.488281,0.12207,0.183105,-26.0,-3.0,3.0
717919.0,0.414307,-0.748535,-0.532593,-0.488281,0.12207,0.12207,-26.0,-3.0,3.0
717951.0,0.413696,-0.746704,-0.53064,-0.488281,0.061035,0.061035,-25.0,-4.0,3.0
717982.0,0.414429,-0.748901,-0.531494,-0.427246,0.0,0.12207,-25.0,-4.0,3.0
718012.0,0.414062,-0.747681,-0.531128,-0.549316,0.12207,0.061035,-25.0,-4.0,3.0
718043.0,0.413452,-0.748413,-0.531494,-0.488281,0.0,0.12207,-25.0,-4.0,3.0
718075.0,0.412476,-0.747925,-0.532104,-0.549316,0.0,0.0,-26.0,-5.0,2.0
718106.0,0.413086,-0.748169,-0.532593,-0.427246,0.305176,0.12207,-26.0,-5.0,2.0
718137.0,0.415039,-0.746826,-0.530029,-0.427246,0.183105,0.183105,-26.0,-5.0,2.0
718169.0,0.41333,-0.748535,-0.531372,-0.427246,0.12207,0.183105,-26.0,-4.0,0.0
718200.0,0.413574,-0.747803,-0.53186,-0.488281,0.244141,0.0,-26.0,-4.0,0.0
718231.0,0.414795,-0.748291,-0.530762,-0.366211,0.12207,0.244141,-26.0,-4.0,0.0
718263.0,0.41394,-0.747437,-0.531494,-0.427246,0.0,0.061035,-27.0,-3.0,0.0
718294.0,0.414429,-0.747803,-0.53064,-0.488281,0.061035,0.183105,-27.0,-3.0,0.0
718325.0,0.413818,-0.746216,-0.532349,-0.488281,0.12207,0.0,-27.0,-3.0,0.0
718357.0,0.412598,-0.748169,-0.532471,-0.488281,0.244141,0.12207,-26.0,-5.0,1.0
718388.0,0.414673,-0.746826,-0.529907,-0.488281,0.12207,0.183105,-26.0,-5.0,1.0
718420.0,0.414429,-0.749023,-0.532227,-0.549316,0.183105,0.183105,-26.0,-5.0,1.0
718452.0,0.414551,-0.747437,-0.530396,-0.549316,0.12207,0.12207,-26.0,-4.0,0.0
718483.0,0.413818,-0.747803,-0.532227,-0.488281,0.061035,0.12207,-26.0,-4.0,0.0
718514.0,0.414062,-0.748779,-0.532227,-0.366211,0.061035,0.12207,-26.0,-4.0,0.0
718546.0,0.413818,-0.74707,-0.531616,-0.488281,0.12207,0.12207,-23.0,-2.0,-1.0
718577.0,0.414185,-0.746582,-0.530762,-0.488281,0.12207,0.12207,-23.0,-2.0,-1.0
718608.0,0.413452,-0.748657,-0.530151,-0.427246,0.12207,0.183105,-23.0,-2.0,-1.0
718640.0,0.412842,-0.747437,-0.532104,-0.488281,0.183105,0.12207,-25.0,-4.0,-6.0
718671.0,0.414429,-0.747559,-0.530762,-0.366211,0.183105,0.12207,-25.0,-4.0,-6.0
718702.0,0.411865,-0.748535,-0.531738,-0.366211,0.12207,0.12207,-25.0,-4.0,-6.0
718733.0,0.414307,-0.748047,-0.531738,-0.549316,0.305176,0.12207,-25.0,-4.0,-6.0
718765.0,0.414673,-0.74707,-0.530151,-0.427246,0.12207,0.061035,-27.0,-4.0,0.0
718796.0,0.412964,-0.748169,-0.533569,-0.427246,0.12207,0.12207,-27.0,-4.0,0.0
718827.0,0.414673,-0.748169,-0.530518,-0.488281,0.12207,0.061035,-27.0,-4.0,0.0
718859.0,0.414062,-0.747559,-0.531128,-0.427246,0.061035,0.12207,-25.0,-5.0,2.0
718890.0,0.413574,-0.748291,-0.532104,-0.366211,0.183105,0.061035,-25.0,-5.0,2.0
718922.0,0.414307,-0.746948,-0.532349,-0.366211,0.427246,0.305176,-25.0,-5.0,2.0
718954.0,0.41687,-0.751099,-0.526733,-0.366211,0.0,0.12207,-25.0,-4.0,-1.0
718987.0,0.409058,-0.745117,-0.533813,-0.549316,-0.12207,0.244141,-25.0,-4.0,-1.0
719019.0,0.415405,-0.747192,-0.529663,-0.366211,0.366211,0.0,-25.0,-4.0,-1.0
719052.0,0.411255,-0.747803,-0.533447,-0.427246,-0.12207,0.244141,-24.0,-6.0,1.0
719083.0,0.415039,-0.750122,-0.529175,-0.549316,0.305176,0.061035,-24.0,-6.0,1.0
719114.0,0.416138,-0.746826,-0.530273,-0.366211,-0.12207,0.12207,-24.0,-6.0,1.0
719146.0,0.413818,-0.749756,-0.533203,-0.427246,0.061035,0.12207,-25.0,-3.0,3.0
719177.0,0.414307,-0.748169,-0.528076,-0.610352,-0.12207,0.0,-25.0,-3.0,3.0
719208.0,0.412598,-0.746094,-0.534058,-0.427246,0.0,0.244141,-25.0,-3.0,3.0
719242.0,0.414795,-0.747437,-0.530884,-0.549316,0.305176,0.183105,-24.0,-2.0,5.0
719274.0,0.414185,-0.748657,-0.530151,-0.488281,-0.183105,0.12207,-24.0,-2.0,5.0
719307.0,0.411987,-0.746704,-0.533569,-0.488281,0.061035,0.12207,-24.0,-2.0,5.0
719341.0,0.414429,-0.748169,-0.531006,-0.366211,0.366211,0.244141,-26.0,-4.0,5.0
719373.0,0.415283,-0.748047,-0.530762,-0.366211,0.183105,0.061035,-26.0,-4.0,5.0
719405.0,0.413574,-0.74707,-0.529541,-0.488281,0.061035,0.061035,-26.0,-4.0,5.0
719437.0,0.414429,-0.74707,-0.532593,-0.427246,0.0,0.12207,-25.0,-2.0,4.0
719468.0,0.414185,-0.749268,-0.531494,-0.610352,0.061035,0.12207,-25.0,-2.0,4.0
719501.0,0.412476,-0.746948,-0.530884,-0.488281,0.183105,0.061035,-25.0,-2.0,4.0
719533.0,0.414307,-0.748047,-0.531982,-0.488281,0.061035,0.12207,-25.0,-5.0,2.0
719564.0,0.414062,-0.74707,-0.532227,-0.427246,0.183105,0.12207,-25.0,-5.0,2.0
719596.0,0.413818,-0.748535,-0.531006,-0.427246,0.12207,0.12207,-25.0,-5.0,2.0
719628.0,0.413574,-0.747559,-0.53125,-0.549316,0.12207,0.12207,-25.0,-4.0,1.0
719660.0,0.414062,-0.747681,-0.531128,-0.366211,0.12207,0.061035,-25.0,-4.0,1.0
719691.0,0.413574,-0.748657,-0.531738,-0.488281,0.0,0.183105,-25.0,-4.0,1.0
719724.0,0.414795,-0.746826,-0.529053,-0.366211,0.061035,0.061035,-27.0,-4.0,9.0
719755.0,0.41333,-0.748901,-0.531616,-0.488281,-0.183105,0.12207,-27.0,-4.0,9.0
719786.0,0.413452,-0.746948,-0.531738,-0.549316,0.12207,0.12207,-27.0,-4.0,9.0
719818.0,0.415161,-0.748535,-0.53064,-0.488281,0.0,0.061035,-26.0,-6.0,1.0
719849.0,0.413574,-0.748047,-0.531982,-0.427246,0.0,0.061035,-26.0,-6.0,1.0
719880.0,0.414673,-0.748169,-0.53064,-0.488281,0.183105,0.061035,-26.0,-6.0,1.0
719911.0,0.414795,-0.749023,-0.529663,-0.427246,-0.12207,0.12207,-26.0,-6.0,1.0
719943.0,0.412964,-0.748169,-0.532349,-0.427246,0.0,0.12207,-25.0,-4.0,0.0
719974.0,0.415405,-0.748779,-0.53064,-0.427246,0.061035,0.12207,-25.0,-4.0,0.0
720005.0,0.413574,-0.745239,-0.531738,-0.366211,0.061035,0.12207,-25.0,-4.0,0.0
720037.0,0.414795,-0.751221,-0.529663,-0.427246,0.0,0.12207,-26.0,-4.0,0.0
720068.0,0.413818,-0.746094,-0.532349,-0.610352,-0.061035,0.0,-26.0,-4.0,0.0
720099.0,0.414673,-0.747803,-0.530029,-0.549316,-0.12207,0.061035,-26.0,-4.0,0.0
720132.0,0.412842,-0.749634,-0.53064,-0.488281,0.12207,0.12207,-25.0,-4.0,0.0
720163.0,0.412476,-0.747803,-0.532593,-0.488281,0.366211,0.183105,-25.0,-4.0,0.0
720194.0,0.41687,-0.745728,-0.529053,-0.244141,0.427246,0.061035,-25.0,-4.0,0.0
720226.0,0.414429,-0.752563,-0.529907,-0.366211,0.0,0.061035,-24.0,-5.0,4.0
720257.0,0.413696,-0.744629,-0.531372,-0.610352,0.183105,-0.061035,-24.0,-5.0,4.0
720288.0,0.414429,-0.747681,-0.528809,-0.244141,0.12207,0.061035,-24.0,-5.0,4.0
720320.0,0.414429,-0.748901,-0.535278,-0.244141,0.244141,0.488281,-26.0,-4.0,5.0
720351.0,0.419189,-0.744385,-0.523926,-0.305176,-0.366211,0.0,-26.0,-4.0,5.0
720382.0,0.408813,-0.752441,-0.535034,-0.610352,-0.671387,0.366211,-26.0,-4.0,5.0
720414.0,0.415161,-0.742676,-0.531372,-0.854492,0.427246,-0.305176,-24.0,-5.0,3.0
720445.0,0.415039,-0.748901,-0.528931,-0.183105,-0.305176,0.427246,-24.0,-5.0,3.0
720476.0,0.413818,-0.750122,-0.530396,-0.610352,0.183105,-0.061035,-24.0,-5.0,3.0
720508.0,0.41626,-0.744629,-0.528564,-0.671387,-0.061035,0.12207,-25.0,-7.0,3.0
720539.0,0.413818,-0.75,-0.531372,-0.244141,-0.183105,0.244141,-25.0,-7.0,3.0
720570.0,0.414062,-0.748169,-0.53064,-0.549316,0.061035,0.061035,-25.0,-7.0,3.0
720601.0,0.415161,-0.745728,-0.53125,-0.427246,0.12207,0.12207,-25.0,-7.0,3.0
720633.0,0.414185,-0.749146,-0.529297,-0.488281,0.0,0.0,-27.0,-4.0,0.0
720664.0,0.412964,-0.748901,-0.53064,-0.488281,0.183105,0.061035,-27.0,-4.0,0.0
720695.0,0.415405,-0.74707,-0.529907,-0.427246,0.427246,0.12207,-27.0,-4.0,0.0
720727.0,0.415283,-0.748413,-0.529907,-0.366211,0.244141,0.244141,-25.0,-5.0,2.0
720759.0,0.413818,-0.748901,-0.529663,-0.366211,0.183105,0.12207,-25.0,-5.0,2.0
720790.0,0.417236,-0.746826,-0.53186,-0.671387,0.305176,0.12207,-25.0,-5.0,2.0
720822.0,0.415527,-0.746704,-0.529297,-0.427246,-0.366211,0.12207,-26.0,-6.0,2.0
720853.0,0.412109,-0.74939,-0.534668,-0.427246,-0.061035,0.183105,-26.0,-6.0,2.0
720884.0,0.415649,-0.747925,-0.530029,-0.671387,0.244141,-0.061035,-26.0,-6.0,2.0
720917.0,0.412109,-0.748047,-0.53125,-0.366211,-0.12207,0.244141,-26.0,-5.0,2.0
720950.0,0.414673,-0.749756,-0.53125,-0.671387,0.366211,0.0,-26.0,-5.0,2.0
720981.0,0.414429,-0.745361,-0.52832,-0.366211,-0.061035,0.183105,-26.0,-5.0,2.0
721013.0,0.413208,-0.750122,-0.531128,-0.671387,-0.061035,0.12207,-25.0,-6.0,5.0
721044.0,0.415527,-0.746216,-0.530151,-0.427246,0.12207,0.0,-25.0,-6.0,5.0
721076.0,0.414429,-0.749756,-0.531616,-0.305176,0.12207,0.244141,-25.0,-6.0,5.0
721108.0,0.414917,-0.748047,-0.529785,-0.488281,0.366211,0.061035,-24.0,-4.0,2.0
721141.0,0.414795,-0.748901,-0.53064,-0.427246,0.12207,0.12207,-24.0,-4.0,2.0
721173.0,0.414307,-0.746216,-0.528931,-0.305176,0.12207,0.061035,-24.0,-4.0,2.0
721206.0,0.414551,-0.747925,-0.530151,-0.305176,0.366211,0.183105,-27.0,-8.0,0.0
721239.0,0.415039,-0.748413,-0.528564,-0.427246,0.183105,0.183105,-27.0,-8.0,0.0
721270.0,0.414307,-0.747559,-0.531006,-0.366211,0.0,0.244141,-27.0,-8.0,0.0
721304.0,0.416016,-0.746338,-0.529785,-0.305176,-0.12207,0.061035,-24.0,-3.0,0.0
721335.0,0.413574,-0.744873,-0.532227,-0.061035,-0.183105,0.0,-24.0,-3.0,0.0
721366.0,0.413818,-0.752075,-0.530518,-0.12207,0.244141,0.305176,-24.0,-3.0,0.0
721399.0,0.416992,-0.745605,-0.53125,-0.183105,-0.183105,-0.061035,-25.0,-4.0,0.0
721431.0,0.417725,-0.747559,-0.5271,-0.427246,-1.586914,0.0,-25.0,-4.0,0.0
721462.0,0.414185,-0.747803,-0.529053,0.061035,-1.89209,-0.061035,-25.0,-4.0,0.0
721494.0,0.421143,-0.74292,-0.528076,-1.281738,-2.01416,-0.183105,-26.0,-5.0,7.0
721526.0,0.415039,-0.753906,-0.52417,0.0,-2.258301,0.061035,-26.0,-5.0,7.0
721557.0,0.420776,-0.73938,-0.538574,-1.037598,-2.197266,-0.061035,-26.0,-5.0,7.0
721591.0,0.425903,-0.73877,-0.512939,0.244141,-3.784179,0.0,-26.0,-3.0,3.0
721623.0,0.416016,-0.748779,-0.526245,0.854492,-5.981445,0.244141,-26.0,-3.0,3.0
721656.0,0.40686,-0.748779,-0.543213,1.159668,-5.92041,0.732422,-26.0,-3.0,3.0
721688.0,0.412109,-0.752075,-0.534912,-0.366211,0.12207,0.793457,-24.0,-5.0,1.0
721720.0,0.431274,-0.738159,-0.519165,0.854492,-1.037598,0.488281,-24.0,-5.0,1.0
721752.0,0.423218,-0.741821,-0.522827,2.624511,-1.708984,1.403808,-24.0,-5.0,1.0
721782.0,0.414185,-0.752686,-0.532227,0.732422,-1.403808,1.525879,-24.0,-5.0,1.0
721814.0,0.405762,-0.728638,-0.5448,0.915527,1.098633,0.915527,-25.0,-3.0,-1.0
721845.0,0.406738,-0.721558,-0.528076,3.479004,5.187988,0.12207,-25.0,-3.0,-1.0
721876.0,0.471558,-0.805054,-0.51355,2.929687,7.751464,-0.976562,-25.0,-3.0,-1.0
721908.0,0.41748,-0.708618,-0.519531,-1.098633,-6.530761,1.525879,-24.0,-4.0,-1.0
721939.0,0.401978,-0.754883,-0.561768,-0.12207,2.929687,0.610352,-24.0,-4.0,-1.0
721970.0,0.44104,-0.742187,-0.50647,-2.319336,0.366211,0.12207,-24.0,-4.0,-1.0
722002.0,0.426392,-0.727783,-0.537354,0.610352,-1.89209,1.220703,-25.0,-5.0,7.0
722033.0,0.409424,-0.753418,-0.525391,-1.159668,-0.488281,1.89209,-25.0,-5.0,7.0
722064.0,0.438232,-0.733032,-0.532837,-1.281738,-0.244141,0.671387,-25.0,-5.0,7.0
722096.0,0.422485,-0.743286,-0.526123,-0.244141,-1.342773,1.342773,-26.0,-4.0,2.0
722127.0,0.42041,-0.743774,-0.536987,-1.159668,0.244141,0.488281,-26.0,-4.0,2.0
722157.0,0.431396,-0.74292,-0.52356,-0.427246,0.12207,0.366211,-26.0,-4.0,2.0
722189.0,0.426025,-0.740479,-0.534424,-0.976562,-0.549316,0.732422,-24.0,-5.0,-1.0
722220.0,0.427246,-0.741455,-0.528442,-0.244141,0.244141,-0.305176,-24.0,-5.0,-1.0
722251.0,0.425659,-0.741211,-0.531738,-0.366211,0.12207,0.183105,-24.0,-5.0,-1.0
722283.0,0.424561,-0.742554,-0.530029,-0.549316,-0.061035,0.183105,-27.0,-4.0,-1.0
722314.0,0.427002,-0.735962,-0.529785,-0.732422,0.305176,-0.061035,-27.0,-4.0,-1.0
722345.0,0.426025,-0.747192,-0.52832,0.183105,0.244141,0.244141,-27.0,-4.0,-1.0
722377.0,0.426025,-0.740479,-0.531494,-0.183105,0.366211,-0.12207,-27.0,-5.0,3.0
722408.0,0.42627,-0.737183,-0.530518,-0.549316,0.061035,0.183105,-27.0,-5.0,3.0
722439.0,0.423218,-0.742798,-0.528564,0.061035,0.671387,0.366211,-27.0,-5.0,3.0
722470.0,0.427124,-0.744629,-0.533325,0.183105,0.915527,0.244141,-27.0,-5.0,3.0
722502.0,0.424316,-0.739014,-0.526367,-0.854492,-0.183105,-1.037598,-24.0,-5.0,2.0
722533.0,0.424072,-0.73291,-0.538696,-0.305176,-0.244141,0.061035,-24.0,-5.0,2.0
722564.0,0.423706,-0.755249,-0.522705,-0.366211,0.793457,0.183105,-24.0,-5.0,2.0
722596.0,0.427368,-0.730835,-0.536865,-0.183105,0.427246,-0.061035,-24.0,-5.0,1.0
722627.0,0.426147,-0.747681,-0.52356,-0.488281,-0.366211,0.305176,-24.0,-5.0,1.0
722658.0,0.421997,-0.742554,-0.535645,-0.12207,-0.183105,0.0,-24.0,-5.0,1.0
722690.0,0.426025,-0.742798,-0.527588,-0.671387,0.610352,0.305176,-26.0,-6.0,0.0
722721.0,0.427246,-0.738159,-0.534912,-0.488281,-0.427246,0.0,-26.0,-6.0,0.0
722752.0,0.423218,-0.746338,-0.527954,-0.488281,0.305176,0.305176,-26.0,-6.0,0.0
722784.0,0.427856,-0.739502,-0.529663,-0.549316,0.305176,-0.244141,-25.0,-5.0,1.0
722815.0,0.426392,-0.740601,-0.530518,-0.549316,-0.061035,0.12207,-25.0,-5.0,1.0
722846.0,0.424561,-0.743652,-0.53125,-0.183105,0.305176,-0.183105,-25.0,-5.0,1.0
722878.0,0.424805,-0.741577,-0.528687,-0.244141,0.244141,-0.183105,-23.0,-6.0,1.0
722909.0,0.425415,-0.741821,-0.533936,-0.488281,0.244141,0.061035,-23.0,-6.0,1.0
722940.0,0.424683,-0.740967,-0.529297,-0.427246,0.0,-0.12207,-23.0,-6.0,1.0
722972.0,0.424316,-0.743042,-0.532104,-0.427246,0.061035,0.305176,-25.0,-7.0,0.0
723003.0,0.426147,-0.741211,-0.530762,-0.610352,0.183105,-0.061035,-25.0,-7.0,0.0
723034.0,0.424805,-0.73999,-0.530762,-0.305176,0.0,0.12207,-25.0,-7.0,0.0
723066.0,0.424561,-0.744873,-0.53125,-0.488281,0.12207,0.12207,-24.0,-7.0,-4.0
723097.0,0.426636,-0.741333,-0.531128,-0.366211,0.305176,-0.244141,-24.0,-7.0,-4.0
723128.0,0.425903,-0.741333,-0.528931,-0.244141,-0.12207,-0.061035,-24.0,-7.0,-4.0
723160.0,0.421875,-0.744873,-0.532471,-0.366211,0.061035,0.0,-22.0,-8.0,2.0
723191.0,0.42749,-0.737183,-0.533203,-0.549316,0.0,-0.12207,-22.0,-8.0,2.0
723222.0,0.430176,-0.737915,-0.524658,0.305176,-0.732422,-0.244141,-22.0,-8.0,2.0
723253.0,0.413452,-0.754883,-0.532837,0.427246,-0.854492,0.183105,-22.0,-8.0,2.0
723285.0,0.424438,-0.738281,-0.536499,-1.464844,1.159668,0.183105,-23.0,-3.0,0.0
723316.0,0.433594,-0.736328,-0.526001,-0.183105,-0.183105,0.061035,-23.0,-3.0,0.0
723347.0,0.421143,-0.744629,-0.531738,-0.366211,-0.305176,0.427246,-23.0,-3.0,0.0
723379.0,0.42334,-0.744019,-0.533569,-0.793457,0.305176,-0.183105,-24.0,-4.0,2.0
723410.0,0.426025,-0.740601,-0.529053,-0.549316,0.305176,0.305176,-24.0,-4.0,2.0
723441.0,0.42334,-0.744629,-0.532104,-0.305176,-0.12207,0.183105,-24.0,-4.0,2.0
723473.0,0.425293,-0.741699,-0.531372,-0.549316,0.12207,-0.061035,-25.0,-4.0,-1.0
723504.0,0.425171,-0.740234,-0.530884,-0.549316,-0.061035,0.183105,-25.0,-4.0,-1.0
723535.0,0.424561,-0.74353,-0.530029,-0.549316,0.0,0.183105,-25.0,-4.0,-1.0
723567.0,0.424561,-0.741089,-0.529907,-0.488281,0.061035,0.0,-27.0,-6.0,2.0
723598.0,0.423828,-0.742187,-0.527466,-0.488281,0.0,0.061035,-27.0,-6.0,2.0
723629.0,0.427734,-0.742554,-0.534424,-0.366211,-0.244141,0.061035,-27.0,-6.0,2.0
723661.0,0.423218,-0.742676,-0.525757,-0.488281,0.366211,0.183105,-22.0,-5.0,5.0
723692.0,0.425049,-0.740967,-0.533813,-0.610352,-0.183105,-0.061035,-22.0,-5.0,5.0
723723.0,0.424805,-0.743652,-0.53125,-0.183105,0.0,0.12207,-22.0,-5.0,5.0
723755.0,0.424438,-0.740845,-0.529541,-0.488281,0.12207,0.061035,-25.0,-7.0,0.0
723786.0,0.423462,-0.742554,-0.532104,-0.488281,0.183105,0.244141,-25.0,-7.0,0.0
723817.0,0.426758,-0.74292,-0.529907,-0.427246,0.183105,0.0,-25.0,-7.0,0.0
723849.0,0.424683,-0.741943,-0.53125,-0.427246,-0.061035,0.12207,-26.0,-6.0,-2.0
723880.0,0.425415,-0.74231,-0.530151,-0.549316,0.183105,0.061035,-26.0,-6.0,-2.0
723911.0,0.424805,-0.74353,-0.530151,-0.427246,0.12207,0.061035,-26.0,-6.0,-2.0
723942.0,0.425659,-0.740723,-0.531372,-0.610352,0.061035,0.12207,-26.0,-6.0,-2.0
723974.0,0.424683,-0.741699,-0.529053,-0.244141,0.061035,0.061035,-26.0,-5.0,0.0
724006.0,0.424072,-0.74353,-0.531128,-0.427246,0.12207,0.12207,-26.0,-5.0,0.0
724038.0,0.424683,-0.741089,-0.530884,-0.488281,0.061035,0.12207,-26.0,-5.0,0.0
724070.0,0.425049,-0.741089,-0.528687,-0.610352,0.061035,0.183105,-27.0,-5.0,0.0
724102.0,0.424561,-0.743896,-0.529419,-0.488281,0.061035,0.061035,-27.0,-5.0,0.0
724133.0,0.424927,-0.740845,-0.530884,-0.549316,0.061035,0.244141,-27.0,-5.0,0.0
724165.0,0.425171,-0.740723,-0.531372,-0.488281,0.12207,0.12207,-26.0,-5.0,-1.0
724196.0,0.425049,-0.742676,-0.529541,-0.427246,0.061035,0.183105,-26.0,-5.0,-1.0
724227.0,0.424683,-0.741333,-0.532227,-0.427246,0.12207,0.12207,-26.0,-5.0,-1.0
724259.0,0.425415,-0.742065,-0.530029,-0.549316,-0.061035,0.244141,-23.0,-4.0,1.0
724290.0,0.424072,-0.743164,-0.531738,-0.427246,0.183105,0.061035,-23.0,-4.0,1.0
724321.0,0.425537,-0.740967,-0.531128,-0.427246,0.183105,0.12207,-23.0,-4.0,1.0
724353.0,0.425293,-0.741211,-0.531738,-0.488281,0.061035,0.061035,-23.0,-4.0,0.0
724384.0,0.424805,-0.741821,-0.530273,-0.427246,0.183105,0.12207,-23.0,-4.0,0.0
724415.0,0.425171,-0.74292,-0.529663,-0.427246,0.183105,0.12207,-23.0,-4.0,0.0
724447.0,0.425537,-0.73999,-0.530884,-0.610352,0.0,0.12207,-24.0,-5.0,-1.0
724478.0,0.423584,-0.741333,-0.529053,-0.366211,0.12207,0.061035,-24.0,-5.0,-1.0
724509.0,0.424316,-0.743042,-0.53125,-0.427246,0.061035,0.244141,-24.0,-5.0,-1.0
724541.0,0.42627,-0.740356,-0.531372,-0.549316,0.12207,0.061035,-22.0,-4.0,0.0
724572.0,0.424683,-0.741943,-0.531372,-0.488281,0.061035,0.183105,-22.0,-4.0,0.0
724604.0,0.424194,-0.741699,-0.530396,-0.488281,0.12207,0.12207,-22.0,-4.0,0.0
724639.0,0.426147,-0.741089,-0.53125,-0.549316,0.061035,0.061035,-26.0,-8.0,1.0
724670.0,0.424683,-0.743408,-0.529419,-0.427246,0.12207,0.12207,-26.0,-8.0,1.0
724702.0,0.424438,-0.742676,-0.531372,-0.549316,0.061035,0.12207,-26.0,-8.0,1.0
724734.0,0.425293,-0.741089,-0.53064,-0.305176,0.305176,0.061035,-24.0,-5.0,-3.0
724765.0,0.424561,-0.741333,-0.531128,-0.488281,0.0,0.183105,-24.0,-5.0,-3.0
724797.0,0.425415,-0.741943,-0.529907,-0.427246,0.244141,0.061035,-24.0,-5.0,-3.0
724829.0,0.424438,-0.742798,-0.530151,-0.427246,0.061035,0.183105,-24.0,-5.0,-3.0
724861.0,0.425415,-0.741577,-0.531128,-0.366211,0.183105,0.0,-29.0,-5.0,3.0
724893.0,0.424805,-0.741821,-0.530396,-0.427246,-0.061035,0.12207,-29.0,-5.0,3.0
724924.0,0.424194,-0.743042,-0.531494,-0.549316,0.183105,0.244141,-29.0,-5.0,3.0
724956.0,0.425903,-0.739746,-0.530518,-0.610352,0.12207,0.061035,-25.0,-7.0,-4.0
724987.0,0.424927,-0.744385,-0.53064,-0.366211,0.061035,0.244141,-25.0,-7.0,-4.0
725018.0,0.425781,-0.741455,-0.530884,-0.610352,0.12207,0.12207,-25.0,-7.0,-4.0
725050.0,0.42688,-0.741333,-0.529907,-0.366211,0.0,0.183105,-26.0,-4.0,0.0
725081.0,0.425049,-0.741699,-0.532104,-0.427246,0.061035,0.12207,-26.0,-4.0,0.0
725112.0,0.424316,-0.743408,-0.53064,-0.488281,0.244141,0.061035,-26.0,-4.0,0.0
725144.0,0.425171,-0.741089,-0.53186,-0.488281,0.0,0.183105,-24.0,-5.0,3.0
725175.0,0.426025,-0.743408,-0.530884,-0.427246,0.12207,0.183105,-24.0,-5.0,3.0
725206.0,0.426147,-0.740479,-0.530029,-0.488281,0.183105,0.061035,-24.0,-5.0,3.0
725238.0,0.424561,-0.742676,-0.531372,-0.366211,0.12207,0.061035,-25.0,-5.0,-1.0
725269.0,0.424927,-0.74353,-0.531982,-0.549316,0.183105,0.061035,-25.0,-5.0,-1.0
725300.0,0.424561,-0.739136,-0.530273,-0.488281,0.183105,0.061035,-25.0,-5.0,-1.0
725332.0,0.425293,-0.743164,-0.531494,-0.366211,0.061035,0.183105,-23.0,-8.0,-1.0
725363.0,0.423584,-0.741699,-0.531616,-0.427246,0.183105,0.061035,-23.0,-8.0,-1.0
725394.0,0.425659,-0.740967,-0.530884,-0.488281,0.061035,0.12207,-23.0,-8.0,-1.0
725426.0,0.424561,-0.743286,-0.530518,-0.305176,0.12207,0.244141,-26.0,-4.0,1.0
725457.0,0.42627,-0.741333,-0.530273,-0.610352,0.12207,0.061035,-26.0,-4.0,1.0
725488.0,0.424194,-0.741333,-0.531128,-0.366211,0.0,0.183105,-26.0,-4.0,1.0
725520.0,0.424927,-0.742065,-0.531738,-0.549316,0.12207,0.12207,-24.0,-5.0,0.0
725551.0,0.425903,-0.740479,-0.529785,-0.488281,0.183105,0.061035,-24.0,-5.0,0.0
725582.0,0.424927,-0.741089,-0.531372,-0.366211,0.061035,0.12207,-24.0,-5.0,0.0
725613.0,0.424316,-0.742065,-0.530884,-0.549316,0.12207,0.12207,-24.0,-5.0,0.0
725645.0,0.424683,-0.739746,-0.530884,-0.488281,0.183105,0.061035,-26.0,-7.0,1.0
725676.0,0.424194,-0.744507,-0.530151,-0.244141,0.12207,0.244141,-26.0,-7.0,1.0
725707.0,0.425171,-0.739868,-0.532471,-0.610352,0.12207,0.12207,-26.0,-7.0,1.0
725739.0,0.425659,-0.740967,-0.528687,-0.305176,-0.061035,0.305176,-23.0,-6.0,0.0
725770.0,0.424561,-0.744629,-0.532104,-0.427246,0.305176,0.183105,-23.0,-6.0,0.0
725801.0,0.425415,-0.739624,-0.531006,-0.610352,0.183105,-0.061035,-23.0,-6.0,0.0
725834.0,0.423706,-0.742432,-0.531372,-0.549316,-0.061035,0.244141,-25.0,-3.0,5.0
725865.0,0.425293,-0.74292,-0.530762,-0.488281,0.183105,0.12207,-25.0,-3.0,5.0
725897.0,0.42688,-0.739746,-0.53125,-0.427246,0.061035,0.12207,-25.0,-3.0,5.0
725929.0,0.424072,-0.74353,-0.531006,-0.366211,-0.061035,0.183105,-25.0,-4.0,2.0
725960.0,0.423462,-0.741943,-0.531128,-0.610352,0.12207,0.183105,-25.0,-4.0,2.0
725991.0,0.42627,-0.741577,-0.529297,-0.366211,0.061035,0.061035,-25.0,-4.0,2.0
726023.0,0.424194,-0.743408,-0.53125,-0.366211,0.061035,0.183105,-25.0,-4.0,0.0
726055.0,0.425659,-0.741699,-0.529419,-0.549316,0.183105,0.061035,-25.0,-4.0,0.0
726086.0,0.425659,-0.741699,-0.529175,-0.366211,0.183105,0.061035,-25.0,-4.0,0.0
726119.0,0.424561,-0.743408,-0.532715,-0.610352,0.0,0.12207,-27.0,-4.0,4.0
726150.0,0.424805,-0.740356,-0.529785,-0.488281,0.305176,0.0,-27.0,-4.0,4.0
726181.0,0.424438,-0.742676,-0.528687,-0.366211,0.0,0.183105,-27.0,-4.0,4.0
726213.0,0.424805,-0.741821,-0.530884,-0.366211,0.305176,0.061035,-25.0,-4.0,2.0
726244.0,0.424561,-0.741089,-0.531128,-0.549316,-0.061035,0.12207,-25.0,-4.0,2.0
726275.0,0.423828,-0.741943,-0.531006,-0.427246,0.12207,0.183105,-25.0,-4.0,2.0
726305.0,0.425903,-0.741455,-0.529297,-0.366211,0.244141,0.061035,-25.0,-4.0,2.0
726337.0,0.425903,-0.741333,-0.531372,-0.488281,0.061035,0.12207,-24.0,-3.0,1.0
726368.0,0.424316,-0.742187,-0.530273,-0.488281,0.183105,0.183105,-24.0,-3.0,1.0
726399.0,0.424683,-0.742432,-0.529297,-0.488281,0.183105,0.183105,-24.0,-3.0,1.0
726431.0,0.426392,-0.741089,-0.53125,-0.366211,0.061035,0.061035,-26.0,-5.0,3.0
726462.0,0.424805,-0.74231,-0.530762,-0.488281,-0.061035,0.061035,-26.0,-5.0,3.0
726495.0,0.424805,-0.742676,-0.529785,-0.427246,0.183105,0.12207,-26.0,-5.0,3.0
726527.0,0.425415,-0.740601,-0.53064,-0.427246,0.183105,-0.061035,-25.0,-2.0,-1.0
726558.0,0.424316,-0.741699,-0.530884,-0.305176,-0.061035,0.244141,-25.0,-2.0,-1.0
726589.0,0.424316,-0.743408,-0.53186,-0.549316,0.183105,0.183105,-25.0,-2.0,-1.0
726621.0,0.427002,-0.740723,-0.529297,-0.488281,0.244141,0.061035,-24.0,-8.0,0.0
726652.0,0.424927,-0.742432,-0.531982,-0.488281,-0.061035,0.244141,-24.0,-8.0,0.0
726683.0,0.425049,-0.741821,-0.530884,-0.610352,0.183105,0.12207,-24.0,-8.0,0.0
726714.0,0.42627,-0.741699,-0.529785,-0.549316,0.12207,0.061035,-25.0,-3.0,5.0
726746.0,0.425415,-0.741333,-0.530518,-0.427246,0.12207,0.061035,-25.0,-3.0,5.0
726777.0,0.425171,-0.741943,-0.530029,-0.488281,0.12207,0.061035,-25.0,-3.0,5.0
726809.0,0.424683,-0.741577,-0.530273,-0.610352,0.061035,0.12207,-25.0,-8.0,-1.0
726840.0,0.425659,-0.741821,-0.531738,-0.366211,0.183105,0.12207,-25.0,-8.0,-1.0
726871.0,0.424683,-0.739868,-0.531006,-0.488281,0.0,0.12207,-25.0,-8.0,-1.0
726903.0,0.425903,-0.741211,-0.530884,-0.488281,0.061035,0.061035,-23.0,-7.0,3.0
726936.0,0.424683,-0.741333,-0.530396,-0.427246,0.12207,0.12207,-23.0,-7.0,3.0
726969.0,0.424805,-0.742798,-0.529785,-0.427246,0.061035,0.183105,-23.0,-7.0,3.0
727002.0,0.425049,-0.73999,-0.529907,-0.488281,0.12207,0.12207,-24.0,-4.0,1.0
727035.0,0.424194,-0.743774,-0.530151,-0.488281,0.183105,0.183105,-24.0,-4.0,1.0
727067.0,0.425903,-0.740601,-0.530762,-0.488281,0.12207,0.183105,-24.0,-4.0,1.0
727100.0,0.425415,-0.742065,-0.531494,-0.366211,0.183105,0.12207,-25.0,-5.0,-1.0
727131.0,0.425415,-0.742798,-0.531006,-0.488281,0.061035,0.12207,-25.0,-5.0,-1.0
727163.0,0.425171,-0.740479,-0.530151,-0.488281,0.12207,0.061035,-25.0,-5.0,-1.0
727195.0,0.424316,-0.743164,-0.531128,-0.427246,0.12207,0.183105,-24.0,-3.0,-2.0
727226.0,0.425293,-0.740479,-0.532715,-0.549316,0.183105,0.0,-24.0,-3.0,-2.0
727259.0,0.425659,-0.740967,-0.531006,-0.305176,0.0,0.183105,-24.0,-3.0,-2.0
727292.0,0.424072,-0.742676,-0.532227,-0.549316,0.12207,0.12207,-24.0,-5.0,1.0
727326.0,0.42688,-0.741699,-0.529785,-0.366211,0.12207,0.12207,-24.0,-5.0,1.0
727357.0,0.424194,-0.744629,-0.531616,-0.488281,-0.061035,0.244141,-24.0,-5.0,1.0
727389.0,0.425049,-0.741333,-0.53125,-0.549316,0.244141,0.0,-24.0,-4.0,1.0
727422.0,0.424438,-0.741577,-0.530518,-0.366211,0.0,0.12207,-24.0,-4.0,1.0
727455.0,0.424805,-0.743408,-0.533691,-0.549316,0.183105,0.12207,-24.0,-4.0,1.0
727487.0,0.425415,-0.73999,-0.530029,-0.549316,0.12207,0.061035,-24.0,-6.0,3.0
727518.0,0.424927,-0.741943,-0.530029,-0.549316,-0.061035,0.366211,-24.0,-6.0,3.0
727549.0,0.425171,-0.740356,-0.530518,-0.488281,0.244141,0.061035,-24.0,-6.0,3.0
727580.0,0.425537,-0.741821,-0.529419,-0.427246,0.0,0.12207,-24.0,-6.0,3.0
727613.0,0.424927,-0.742432,-0.531738,-0.549316,0.061035,0.183105,-23.0,-7.0,-1.0
727645.0,0.426392,-0.742432,-0.528687,-0.488281,0.12207,0.183105,-23.0,-7.0,-1.0
727678.0,0.424927,-0.741455,-0.531006,-0.366211,0.12207,0.12207,-23.0,-7.0,-1.0
727713.0,0.426636,-0.741943,-0.530762,-0.488281,0.244141,0.244141,-26.0,-3.0,0.0
727744.0,0.425415,-0.741455,-0.530518,-0.366211,0.061035,0.0,-26.0,-3.0,0.0
727775.0,0.42395,-0.743164,-0.53064,-0.427246,0.12207,0.12207,-26.0,-3.0,0.0
727809.0,0.424927,-0.741333,-0.531494,-0.488281,0.183105,0.12207,-25.0,-4.0,-1.0
727842.0,0.425049,-0.74231,-0.529419,-0.488281,0.061035,0.12207,-25.0,-4.0,-1.0
727874.0,0.424805,-0.742676,-0.530762,-0.366211,0.12207,0.12207,-25.0,-4.0,-1.0
727908.0,0.425293,-0.740723,-0.531128,-0.549316,0.12207,0.183105,-25.0,-5.0,0.0
727940.0,0.423584,-0.741821,-0.531494,-0.488281,0.061035,0.305176,-25.0,-5.0,0.0
727972.0,0.42627,-0.741333,-0.531128,-0.488281,0.183105,0.061035,-25.0,-5.0,0.0
728006.0,0.425293,-0.742676,-0.528442,-0.305176,0.061035,0.12207,-25.0,-6.0,1.0
728037.0,0.425171,-0.740723,-0.532227,-0.549316,0.12207,0.061035,-25.0,-6.0,1.0
728068.0,0.424805,-0.74292,-0.529785,-0.427246,0.12207,0.12207,-25.0,-6.0,1.0
728100.0,0.425293,-0.741577,-0.531494,-0.488281,0.061035,0.183105,-24.0,-4.0,7.0
728131.0,0.424438,-0.741211,-0.530762,-0.427246,0.183105,-0.061035,-24.0,-4.0,7.0
728162.0,0.424316,-0.741577,-0.532227,-0.488281,0.12207,0.183105,-24.0,-4.0,7.0
728194.0,0.424683,-0.74292,-0.530273,-0.427246,0.061035,0.061035,-25.0,-2.0,2.0
728225.0,0.425537,-0.741943,-0.532349,-0.427246,0.061035,0.183105,-25.0,-2.0,2.0
728256.0,0.424927,-0.741089,-0.530151,-0.549316,0.061035,0.0,-25.0,-2.0,2.0
728288.0,0.424805,-0.743164,-0.530884,-0.366211,0.244141,0.183105,-25.0,-4.0,0.0
728319.0,0.426392,-0.740234,-0.530273,-0.610352,0.244141,0.061035,-25.0,-4.0,0.0
728350.0,0.425293,-0.74231,-0.531128,-0.366211,0.061035,-0.061035,-25.0,-4.0,0.0
728382.0,0.424316,-0.744141,-0.532959,-0.488281,0.061035,0.305176,-22.0,-6.0,0.0
728413.0,0.425659,-0.740601,-0.529785,-0.610352,0.183105,0.061035,-22.0,-6.0,0.0
728444.0,0.424438,-0.742065,-0.529297,-0.366211,-0.061035,0.244141,-22.0,-6.0,0.0
728476.0,0.424316,-0.743042,-0.530762,-0.427246,0.244141,0.061035,-25.0,-6.0,1.0
728507.0,0.426147,-0.73938,-0.529541,-0.488281,0.183105,0.061035,-25.0,-6.0,1.0
728539.0,0.42395,-0.741943,-0.531494,-0.488281,0.061035,0.12207,-25.0,-6.0,1.0
728571.0,0.425171,-0.743164,-0.529907,-0.366211,0.12207,0.061035,-24.0,-4.0,0.0
728602.0,0.425537,-0.73999,-0.531738,-0.488281,0.0,0.061035,-24.0,-4.0,0.0
728634.0,0.424805,-0.741577,-0.529907,-0.488281,0.244141,0.12207,-24.0,-4.0,0.0
728666.0,0.422974,-0.74231,-0.530396,-0.488281,0.12207,0.183105,-22.0,-6.0,1.0
728697.0,0.42627,-0.74231,-0.530029,-0.427246,0.183105,0.061035,-22.0,-6.0,1.0
728727.0,0.424316,-0.741577,-0.53125,-0.549316,0.0,0.183105,-22.0,-6.0,1.0
728758.0,0.424805,-0.74292,-0.529663,-0.488281,0.12207,0.12207,-22.0,-6.0,1.0
728790.0,0.425659,-0.740112,-0.530518,-0.549316,0.061035,0.12207,-26.0,-3.0,1.0
728821.0,0.425171,-0.741577,-0.531006,-0.366211,0.0,0.12207,-26.0,-3.0,1.0
728852.0,0.425537,-0.742432,-0.531372,-0.488281,0.061035,0.061035,-26.0,-3.0,1.0
728885.0,0.425903,-0.741333,-0.531494,-0.427246,0.183105,0.0,-24.0,-7.0,0.0
728916.0,0.424072,-0.742676,-0.532104,-0.488281,0.12207,0.12207,-24.0,-7.0,0.0
728947.0,0.425415,-0.742798,-0.530884,-0.366211,0.183105,0.0,-24.0,-7.0,0.0
728979.0,0.424438,-0.740723,-0.53064,-0.488281,0.12207,0.12207,-24.0,-3.0,-3.0
729010.0,0.425293,-0.740723,-0.53064,-0.488281,0.12207,0.061035,-24.0,-3.0,-3.0
729041.0,0.424072,-0.742187,-0.528931,-0.366211,0.0,0.183105,-24.0,-3.0,-3.0
729073.0,0.424927,-0.739868,-0.53125,-0.488281,0.183105,0.061035,-23.0,-2.0,4.0
729104.0,0.425415,-0.740479,-0.529907,-0.366211,0.0,0.12207,-23.0,-2.0,4.0
729136.0,0.424561,-0.74292,-0.53186,-0.549316,0.183105,0.12207,-23.0,-2.0,4.0
729168.0,0.425659,-0.740967,-0.530762,-0.549316,0.183105,0.061035,-27.0,-4.0,3.0
729200.0,0.425659,-0.74231,-0.531982,-0.427246,0.061035,0.12207,-27.0,-4.0,3.0
729231.0,0.424072,-0.743042,-0.530151,-0.610352,0.0,0.183105,-27.0,-4.0,3.0
729263.0,0.426025,-0.739746,-0.530396,-0.549316,0.12207,0.061035,-26.0,-5.0,5.0
729294.0,0.424316,-0.742676,-0.529907,-0.366211,0.0,0.244141,-26.0,-5.0,5.0
729325.0,0.425537,-0.741089,-0.531738,-0.488281,0.12207,0.061035,-26.0,-5.0,5.0
729356.0,0.42627,-0.741577,-0.528931,-0.549316,0.12207,0.061035,-24.0,-5.0,-1.0
729387.0,0.424805,-0.74292,-0.531738,-0.427246,0.0,0.244141,-24.0,-5.0,-1.0
729418.0,0.424805,-0.741089,-0.531616,-0.427246,0.12207,0.0,-24.0,-5.0,-1.0
729448.0,0.425659,-0.741333,-0.529785,-0.427246,0.061035,0.0,-24.0,-5.0,-1.0
729480.0,0.42334,-0.743286,-0.531006,-0.427246,0.183105,0.061035,-25.0,-6.0,3.0
729511.0,0.424438,-0.741699,-0.530273,-0.427246,0.183105,0.12207,-25.0,-6.0,3.0
729543.0,0.425293,-0.741211,-0.53064,-0.488281,0.12207,0.12207,-25.0,-6.0,3.0
729575.0,0.425537,-0.741333,-0.53125,-0.427246,0.061035,0.12207,-24.0,-4.0,-1.0
729606.0,0.424683,-0.740845,-0.530518,-0.488281,0.12207,0.12207,-24.0,-4.0,-1.0
729637.0,0.424927,-0.742187,-0.530396,-0.427246,0.061035,0.183105,-24.0,-4.0,-1.0
729669.0,0.424194,-0.741699,-0.53064,-0.549316,0.12207,0.0,-25.0,-2.0,0.0
729700.0,0.426514,-0.740601,-0.529663,-0.366211,0.12207,0.061035,-25.0,-2.0,0.0
729731.0,0.423706,-0.743774,-0.530762,-0.427246,0.061035,0.183105,-25.0,-2.0,0.0
729763.0,0.425293,-0.741333,-0.530029,-0.488281,0.183105,0.0,-25.0,-6.0,1.0
729794.0,0.424927,-0.742676,-0.530884,-0.488281,0.061035,0.183105,-25.0,-6.0,1.0
729825.0,0.425781,-0.742187,-0.530884,-0.427246,0.12207,0.12207,-25.0,-6.0,1.0
729857.0,0.425781,-0.741211,-0.529663,-0.427246,0.0,0.061035,-26.0,-6.0,3.0
729889.0,0.424927,-0.742187,-0.531982,-0.549316,0.061035,0.12207,-26.0,-6.0,3.0
729922.0,0.425659,-0.740601,-0.530273,-0.427246,0.183105,0.061035,-26.0,-6.0,3.0
729956.0,0.425293,-0.743042,-0.532715,-0.427246,0.0,0.12207,-24.0,-4.0,0.0
729989.0,0.425659,-0.739014,-0.53064,-0.488281,0.244141,0.0,-24.0,-4.0,0.0
730023.0,0.423462,-0.743896,-0.532227,-0.244141,0.12207,0.183105,-24.0,-4.0,0.0
730055.0,0.425903,-0.740967,-0.53186,-0.549316,0.183105,0.12207,-25.0,-5.0,3.0
730089.0,0.42627,-0.741333,-0.529297,-0.488281,0.0,0.12207,-25.0,-5.0,3.0
730121.0,0.423828,-0.744141,-0.529663,-0.549316,0.061035,0.244141,-25.0,-5.0,3.0
730153.0,0.424438,-0.740845,-0.53125,-0.549316,0.183105,0.061035,-25.0,-5.0,1.0
730187.0,0.425659,-0.741699,-0.528687,-0.366211,0.061035,0.183105,-25.0,-5.0,1.0
730220.0,0.424316,-0.742676,-0.531006,-0.488281,0.12207,0.12207,-25.0,-5.0,1.0
730253.0,0.426514,-0.740234,-0.530029,-0.427246,0.12207,0.12207,-23.0,-4.0,5.0
730287.0,0.423706,-0.742187,-0.53125,-0.427246,0.061035,0.244141,-23.0,-4.0,5.0
730320.0,0.425293,-0.743164,-0.529785,-0.427246,0.12207,0.12207,-23.0,-4.0,5.0
730352.0,0.425537,-0.740967,-0.531616,-0.488281,0.12207,0.061035,-24.0,-6.0,0.0
730386.0,0.424316,-0.743286,-0.529907,-0.366211,0.061035,0.12207,-24.0,-6.0,0.0
730417.0,0.424805,-0.741943,-0.530762,-0.488281,0.244141,0.0,-24.0,-6.0,0.0
730450.0,0.426025,-0.742187,-0.531738,-0.488281,0.061035,0.12207,-26.0,-4.0,0.0
730481.0,0.424561,-0.741455,-0.532227,-0.488281,0.0,0.061035,-26.0,-4.0,0.0
730512.0,0.424927,-0.741455,-0.530518,-0.488281,0.183105,0.12207,-26.0,-4.0,0.0
730544.0,0.425415,-0.742798,-0.530518,-0.427246,0.183105,0.12207,-27.0,-4.0,3.0
730575.0,0.425903,-0.741211,-0.531982,-0.488281,0.12207,0.061035,-27.0,-4.0,3.0
730606.0,0.424194,-0.743042,-0.530151,-0.305176,0.061035,0.183105,-27.0,-4.0,3.0
730638.0,0.425171,-0.741333,-0.531616,-0.610352,0.12207,0.061035,-25.0,-5.0,1.0
730669.0,0.426147,-0.740967,-0.530396,-0.366211,0.061035,0.12207,-25.0,-5.0,1.0
730700.0,0.423828,-0.743774,-0.531738,-0.366211,0.061035,0.183105,-25.0,-5.0,1.0
730732.0,0.426025,-0.741211,-0.529419,-0.610352,0.244141,0.0,-26.0,-5.0,0.0
730763.0,0.425293,-0.74231,-0.530273,-0.366211,-0.061035,0.183105,-26.0,-5.0,0.0
730794.0,0.424316,-0.74231,-0.53064,-0.427246,0.183105,0.12207,-26.0,-5.0,0.0
730825.0,0.425415,-0.741699,-0.531738,-0.488281,0.12207,0.12207,-26.0,-5.0,0.0
730857.0,0.424805,-0.74231,-0.530396,-0.366211,0.0,0.183105,-24.0,-8.0,0.0
730888.0,0.424072,-0.743164,-0.531128,-0.427246,0.061035,0.183105,-24.0,-8.0,0.0
730919.0,0.426514,-0.740723,-0.531128,-0.488281,0.12207,0.0,-24.0,-8.0,0.0
730951.0,0.424805,-0.742554,-0.529663,-0.427246,0.0,0.244141,-24.0,-5.0,-1.0
730983.0,0.425903,-0.74231,-0.531616,-0.488281,0.183105,0.12207,-24.0,-5.0,-1.0
731015.0,0.425781,-0.740479,-0.529663,-0.488281,0.12207,0.061035,-24.0,-5.0,-1.0
731047.0,0.424438,-0.74292,-0.531128,-0.488281,0.061035,0.183105,-26.0,-5.0,-3.0
731078.0,0.423828,-0.741821,-0.529541,-0.610352,0.244141,0.061035,-26.0,-5.0,-3.0
731109.0,0.425171,-0.741211,-0.530029,-0.488281,0.061035,0.183105,-26.0,-5.0,-3.0
731142.0,0.424927,-0.741821,-0.530029,-0.366211,0.12207,0.183105,-24.0,-6.0,0.0
731174.0,0.426025,-0.741699,-0.530762,-0.549316,0.061035,0.12207,-24.0,-6.0,0.0
731205.0,0.425659,-0.741089,-0.531006,-0.427246,0.12207,0.061035,-24.0,-6.0,0.0
731238.0,0.425293,-0.743042,-0.530151,-0.427246,0.12207,0.061035,-26.0,-3.0,-1.0
731271.0,0.424927,-0.741333,-0.53064,-0.427246,0.12207,0.0,-26.0,-3.0,-1.0
731302.0,0.424072,-0.742065,-0.529663,-0.549316,0.061035,0.244141,-26.0,-3.0,-1.0
731334.0,0.425903,-0.741577,-0.531006,-0.427246,0.183105,0.12207,-26.0,-8.0,1.0
731365.0,0.425781,-0.740845,-0.530273,-0.427246,0.0,0.183105,-26.0,-8.0,1.0
731396.0,0.425171,-0.741943,-0.530762,-0.488281,0.183105,0.061035,-26.0,-8.0,1.0
731428.0,0.424683,-0.743164,-0.530762,-0.427246,0.061035,0.12207,-25.0,-4.0,1.0
731459.0,0.425293,-0.741455,-0.530029,-0.366211,0.12207,0.12207,-25.0,-4.0,1.0
731490.0,0.424805,-0.742554,-0.531006,-0.427246,-0.061035,0.12207,-25.0,-4.0,1.0
731522.0,0.425171,-0.741699,-0.529907,-0.488281,0.12207,0.183105,-25.0,-4.0,0.0
731553.0,0.424927,-0.743164,-0.530396,-0.427246,0.12207,0.061035,-25.0,-4.0,0.0
731585.0,0.425659,-0.740723,-0.530884,-0.488281,0.061035,0.12207,-25.0,-4.0,0.0
731618.0,0.424561,-0.743164,-0.530273,-0.366211,0.12207,0.183105,-26.0,-8.0,4.0
731649.0,0.425049,-0.741089,-0.530762,-0.488281,0.061035,0.061035,-26.0,-8.0,4.0
731680.0,0.425659,-0.740234,-0.531372,-0.488281,0.0,-0.061035,-26.0,-8.0,4.0
731711.0,0.423096,-0.74231,-0.530884,-0.488281,0.061035,0.244141,-26.0,-8.0,4.0
731743.0,0.425781,-0.741821,-0.530518,-0.427246,0.183105,0.183105,-26.0,-4.0,-2.0
731774.0,0.426392,-0.741333,-0.530151,-0.427246,-0.061035,0.12207,-26.0,-4.0,-2.0
731805.0,0.424072,-0.741089,-0.531616,-0.366211,0.183105,0.12207,-26.0,-4.0,-2.0
731837.0,0.424805,-0.74231,-0.530273,-0.366211,0.061035,0.12207,-26.0,-5.0,1.0
731868.0,0.425659,-0.741699,-0.532349,-0.427246,0.183105,0.12207,-26.0,-5.0,1.0
731899.0,0.424438,-0.741821,-0.531006,-0.549316,0.12207,0.12207,-26.0,-5.0,1.0
731931.0,0.424805,-0.741943,-0.531372,-0.610352,0.0,0.244141,-24.0,-7.0,1.0
731962.0,0.426025,-0.741577,-0.530396,-0.610352,0.12207,0.183105,-24.0,-7.0,1.0
731993.0,0.425049,-0.741333,-0.529785,-0.427246,0.061035,0.183105,-24.0,-7.0,1.0
732025.0,0.42395,-0.742798,-0.530884,-0.427246,0.061035,0.12207,-23.0,-7.0,3.0
732056.0,0.425293,-0.742065,-0.530396,-0.610352,0.061035,0.12207,-23.0,-7.0,3.0
732087.0,0.425903,-0.739136,-0.530273,-0.427246,0.12207,0.0,-23.0,-7.0,3.0
732119.0,0.424072,-0.742676,-0.531006,-0.549316,0.0,0.183105,-25.0,-7.0,2.0
732151.0,0.426025,-0.740723,-0.530884,-0.549316,0.12207,0.061035,-25.0,-7.0,2.0
732182.0,0.425171,-0.742798,-0.529175,-0.366211,0.061035,0.061035,-25.0,-7.0,2.0
732214.0,0.424316,-0.743286,-0.53064,-0.549316,0.0,0.12207,-25.0,-6.0,1.0
732245.0,0.425903,-0.739136,-0.531616,-0.549316,0.366211,0.061035,-25.0,-6.0,1.0
732276.0,0.426392,-0.744141,-0.528076,-0.366211,0.0,0.183105,-25.0,-6.0,1.0
732308.0,0.423828,-0.742065,-0.531616,-0.427246,0.12207,0.12207,-26.0,-4.0,5.0
732339.0,0.425659,-0.741211,-0.529785,-0.549316,0.12207,0.061035,-26.0,-4.0,5.0
732370.0,0.425537,-0.741699,-0.53125,-0.488281,0.0,0.244141,-26.0,-4.0,5.0
732401.0,0.425293,-0.741699,-0.530396,-0.427246,0.244141,0.12207,-26.0,-4.0,5.0
732433.0,0.425537,-0.740234,-0.531006,-0.427246,-0.061035,0.12207,-24.0,-4.0,4.0
732464.0,0.424438,-0.742065,-0.531616,-0.366211,0.244141,0.12207,-24.0,-4.0,4.0
732495.0,0.424683,-0.742065,-0.530396,-0.366211,0.061035,0.0,-24.0,-4.0,4.0
732527.0,0.425293,-0.739868,-0.53125,-0.610352,0.0,0.12207,-24.0,-7.0,2.0
732558.0,0.424438,-0.742187,-0.529541,-0.366211,0.183105,0.12207,-24.0,-7.0,2.0
732589.0,0.424316,-0.741821,-0.530518,-0.427246,0.0,0.183105,-24.0,-7.0,2.0
732621.0,0.427002,-0.740967,-0.530396,-0.366211,0.12207,0.061035,-26.0,-4.0,3.0
732652.0,0.423706,-0.742676,-0.53064,-0.427246,0.0,0.244141,-26.0,-4.0,3.0
732683.0,0.426147,-0.740356,-0.53186,-0.610352,0.305176,0.0,-26.0,-4.0,3.0
732716.0,0.425293,-0.740112,-0.529907,-0.366211,-0.061035,0.183105,-24.0,-2.0,5.0
732748.0,0.424438,-0.742798,-0.530151,-0.488281,0.12207,0.183105,-24.0,-2.0,5.0
732779.0,0.425903,-0.740112,-0.530762,-0.610352,0.12207,0.061035,-24.0,-2.0,5.0
732811.0,0.425781,-0.742432,-0.531372,-0.427246,0.0,0.183105,-25.0,-6.0,1.0
732842.0,0.424072,-0.743286,-0.532227,-0.610352,0.12207,0.12207,-25.0,-6.0,1.0
732873.0,0.425903,-0.740479,-0.530273,-0.427246,0.12207,0.12207,-25.0,-6.0,1.0
732905.0,0.425781,-0.742187,-0.530762,-0.427246,0.0,0.183105,-24.0,-4.0,5.0
732936.0,0.425781,-0.741577,-0.53125,-0.488281,0.061035,0.061035,-24.0,-4.0,5.0
732967.0,0.424683,-0.741577,-0.529541,-0.427246,0.12207,0.12207,-24.0,-4.0,5.0
732999.0,0.424927,-0.742798,-0.531006,-0.488281,0.12207,0.183105,-24.0,-5.0,3.0
733030.0,0.424927,-0.741333,-0.530762,-0.488281,0.183105,0.061035,-24.0,-5.0,3.0
733061.0,0.425049,-0.742554,-0.530518,-0.488281,0.061035,0.183105,-24.0,-5.0,3.0
733093.0,0.425415,-0.742065,-0.530518,-0.488281,0.183105,0.061035,-24.0,-3.0,0.0
733124.0,0.425293,-0.740967,-0.531006,-0.427246,0.061035,0.061035,-24.0,-3.0,0.0
733155.0,0.425903,-0.742798,-0.529175,-0.427246,0.061035,0.12207,-24.0,-3.0,0.0
733186.0,0.425537,-0.740723,-0.53064,-0.549316,0.12207,0.061035,-24.0,-3.0,0.0
733218.0,0.425781,-0.743164,-0.529907,-0.427246,0.12207,0.12207,-25.0,-7.0,0.0
733249.0,0.424316,-0.742187,-0.531616,-0.427246,0.061035,0.12207,-25.0,-7.0,0.0
733280.0,0.426025,-0.740479,-0.53064,-0.549316,0.12207,0.0,-25.0,-7.0,0.0
733312.0,0.424683,-0.741455,-0.530273,-0.427246,0.12207,0.12207,-24.0,-7.0,0.0
733343.0,0.424316,-0.741943,-0.530762,-0.427246,0.12207,0.183105,-24.0,-7.0,0.0
733374.0,0.425171,-0.739502,-0.531128,-0.488281,0.12207,0.0,-24.0,-7.0,0.0
733407.0,0.423706,-0.74292,-0.531494,-0.427246,0.12207,0.244141,-24.0,-4.0,3.0
733439.0,0.425903,-0.740356,-0.529419,-0.488281,0.12207,0.061035,-24.0,-4.0,3.0
733471.0,0.426025,-0.741089,-0.529785,-0.488281,0.0,0.12207,-24.0,-4.0,3.0
733503.0,0.423828,-0.742432,-0.532104,-0.366211,0.061035,0.183105,-25.0,-4.0,3.0
733535.0,0.425049,-0.74231,-0.529297,-0.549316,0.12207,0.12207,-25.0,-4.0,3.0
733567.0,0.424316,-0.740112,-0.53125,-0.427246,0.061035,0.061035,-25.0,-4.0,3.0
733599.0,0.425049,-0.743652,-0.530273,-0.488281,0.061035,0.12207,-25.0,-4.0,1.0
733630.0,0.426025,-0.742187,-0.531494,-0.427246,0.061035,0.061035,-25.0,-4.0,1.0
733661.0,0.425049,-0.740356,-0.529785,-0.610352,0.061035,0.12207,-25.0,-4.0,1.0
733693.0,0.425171,-0.741699,-0.532471,-0.427246,0.12207,0.12207,-23.0,-3.0,-2.0
733724.0,0.424194,-0.741821,-0.530518,-0.488281,0.183105,0.12207,-23.0,-3.0,-2.0
733756.0,0.425049,-0.741577,-0.531372,-0.488281,0.0,0.183105,-23.0,-3.0,-2.0
733789.0,0.425049,-0.741577,-0.529785,-0.427246,0.12207,0.12207,-25.0,-5.0,-1.0
733820.0,0.425903,-0.74292,-0.531982,-0.549316,0.0,0.12207,-25.0,-5.0,-1.0
733851.0,0.426392,-0.739136,-0.531006,-0.488281,0.183105,0.0,-25.0,-5.0,-1.0
733883.0,0.425293,-0.74292,-0.530762,-0.305176,0.12207,0.244141,-25.0,-9.0,-1.0
733914.0,0.426147,-0.740601,-0.53186,-0.427246,0.12207,0.061035,-25.0,-9.0,-1.0
733945.0,0.424561,-0.740723,-0.532104,-0.549316,0.061035,0.061035,-25.0,-9.0,-1.0
733978.0,0.424194,-0.74353,-0.53125,-0.305176,0.183105,0.244141,-24.0,-5.0,5.0
734010.0,0.427246,-0.740234,-0.531982,-0.488281,0.12207,0.0,-24.0,-5.0,5.0
734041.0,0.423828,-0.741943,-0.530029,-0.427246,-0.061035,0.183105,-24.0,-5.0,5.0
734072.0,0.423828,-0.744629,-0.531494,-0.610352,0.183105,0.183105,-24.0,-5.0,5.0
734104.0,0.427124,-0.741577,-0.529053,-0.427246,0.183105,0.061035,-23.0,-3.0,-2.0
734135.0,0.423828,-0.741089,-0.532104,-0.488281,-0.12207,0.244141,-23.0,-3.0,-2.0
734166.0,0.425659,-0.742065,-0.529541,-0.427246,0.244141,0.0,-23.0,-3.0,-2.0
734198.0,0.425293,-0.740601,-0.531128,-0.427246,0.061035,0.061035,-21.0,-5.0,-1.0
734229.0,0.424561,-0.743286,-0.530396,-0.427246,0.061035,0.12207,-21.0,-5.0,-1.0
734260.0,0.424561,-0.741333,-0.53125,-0.488281,0.183105,0.061035,-21.0,-5.0,-1.0
734292.0,0.426025,-0.740845,-0.529541,-0.366211,0.061035,0.183105,-24.0,-6.0,0.0
734323.0,0.425049,-0.741333,-0.529541,-0.488281,0.061035,0.061035,-24.0,-6.0,0.0
734354.0,0.425659,-0.741943,-0.53064,-0.488281,0.061035,0.061035,-24.0,-6.0,0.0
734386.0,0.424927,-0.743896,-0.531006,-0.366211,0.12207,0.12207,-24.0,-8.0,0.0
734417.0,0.425293,-0.73999,-0.531006,-0.549316,0.061035,-0.061035,-24.0,-8.0,0.0
734448.0,0.425171,-0.741089,-0.531616,-0.488281,0.0,0.183105,-24.0,-8.0,0.0
734480.0,0.424927,-0.74292,-0.532715,-0.427246,0.244141,0.061035,-24.0,-6.0,2.0
734511.0,0.425781,-0.739624,-0.530029,-0.488281,0.0,0.0,-24.0,-6.0,2.0
734542.0,0.424683,-0.742798,-0.530396,-0.488281,0.0,0.244141,-24.0,-6.0,2.0
734574.0,0.425171,-0.743164,-0.529541,-0.488281,0.183105,0.0,-26.0,-5.0,-3.0
734605.0,0.425171,-0.741333,-0.531128,-0.427246,0.061035,0.183105,-26.0,-5.0,-3.0
734636.0,0.424683,-0.742676,-0.531372,-0.427246,0.061035,0.183105,-26.0,-5.0,-3.0
734668.0,0.42395,-0.741211,-0.53064,-0.488281,0.183105,0.12207,-24.0,-7.0,3.0
734699.0,0.425781,-0.741333,-0.530884,-0.488281,0.183105,0.061035,-24.0,-7.0,3.0
734730.0,0.425659,-0.741333,-0.53064,-0.366211,0.061035,0.12207,-24.0,-7.0,3.0
734761.0,0.425049,-0.743896,-0.531372,-0.488281,0.183105,0.12207,-24.0,-7.0,3.0
734793.0,0.425781,-0.740723,-0.530884,-0.488281,0.183105,0.0,-23.0,-5.0,2.0
734824.0,0.424194,-0.741577,-0.531982,-0.488281,0.061035,0.183105,-23.0,-5.0,2.0
734855.0,0.424072,-0.74231,-0.531372,-0.427246,0.12207,0.12207,-23.0,-5.0,2.0
734887.0,0.425781,-0.740479,-0.53064,-0.427246,0.061035,0.12207,-24.0,-5.0,0.0
734918.0,0.424438,-0.743896,-0.531616,-0.427246,0.0,0.183105,-24.0,-5.0,0.0
734949.0,0.425415,-0.741455,-0.53125,-0.488281,0.183105,0.061035,-24.0,-5.0,0.0
734981.0,0.425781,-0.742187,-0.530273,-0.366211,0.12207,0.244141,-24.0,-4.0,0.0
735012.0,0.425293,-0.740234,-0.531616,-0.549316,0.12207,0.12207,-24.0,-4.0,0.0
735044.0,0.425903,-0.741455,-0.529785,-0.366211,0.12207,0.0,-24.0,-4.0,0.0
735076.0,0.423828,-0.74231,-0.53186,-0.427246,0.061035,0.183105,-23.0,-6.0,0.0
735107.0,0.426147,-0.742676,-0.529785,-0.610352,0.12207,0.12207,-23.0,-6.0,0.0
735138.0,0.425171,-0.740112,-0.530273,-0.366211,0.061035,0.12207,-23.0,-6.0,0.0
735170.0,0.424927,-0.743774,-0.531006,-0.427246,0.183105,0.183105,-25.0,-3.0,2.0
735201.0,0.425537,-0.739502,-0.53064,-0.427246,0.183105,-0.061035,-25.0,-3.0,2.0
735233.0,0.42334,-0.744141,-0.53125,-0.366211,0.0,0.305176,-25.0,-3.0,2.0
735265.0,0.427246,-0.740356,-0.53125,-0.549316,0.366211,0.0,-23.0,-4.0,1.0
735296.0,0.425171,-0.741821,-0.531128,-0.305176,0.0,0.244141,-23.0,-4.0,1.0
