timestamp,accelX,accelY,accelZ,gyroX,gyroY,gyroZ,magX,magY,magZ
51199.0,0.256226,-0.975098,-0.11438,5.676269,-2.502441,1.037598,-1.0,-3.0,-32.0
51230.0,0.245117,-0.96814,-0.113525,6.286621,-0.915527,1.953125,-1.0,-3.0,-32.0
51264.0,0.263428,-0.974609,-0.130493,6.591796,3.173828,2.807617,-1.0,-4.0,-37.0
51296.0,0.280273,-0.969971,-0.129639,4.272461,2.197266,-0.366211,-1.0,-4.0,-37.0
51328.0,0.257935,-0.978149,-0.139893,2.563476,2.075195,-5.615234,-1.0,-4.0,-37.0
51364.0,0.339844,-0.979004,-0.158569,-0.549316,-0.976562,-18.493652,-4.0,-3.0,-35.0
51397.0,0.273682,-0.974976,-0.180664,-3.417969,-1.098633,-42.66357,-4.0,-3.0,-35.0
51430.0,0.356079,-0.953979,-0.139404,-3.112793,8.300781,-77.209473,-4.0,-3.0,-35.0
51464.0,0.357666,-0.861694,-0.165649,-4.516602,-10.437011,-108.5205,-1.0,-1.0,-39.0
51497.0,0.011963,-1.022339,-0.107666,-2.929687,-15.441894,-105.224602,-1.0,-1.0,-39.0
51529.0,0.046021,-0.983521,-0.104004,-3.723144,12.634276,-103.088371,-1.0,-1.0,-39.0
51561.0,0.010254,-0.909058,-0.083008,-16.662598,28.930662,-118.164055,-1.0,0.0,-43.0
51592.0,-0.041748,-1.018921,-0.123047,-5.859375,-20.446775,-88.134758,-1.0,0.0,-43.0
51623.0,-0.257324,-1.001465,-0.167847,-5.92041,-25.817869,-81.787102,-1.0,0.0,-43.0
51655.0,-0.28064,-0.924194,-0.051636,-2.807617,3.234863,-54.199215,-1.0,1.0,-38.0
51686.0,-0.45874,-1.061401,0.005493,0.610352,0.305176,-27.038572,-1.0,1.0,-38.0
51723.0,-0.279907,-1.040405,-0.143555,16.906738,29.113768,46.752926,-1.0,1.0,-38.0
51755.0,-0.472778,-1.277588,-0.044556,32.714844,32.104492,116.760246,-3.0,2.0,-42.0
51788.0,-0.173584,-3.154175,0.096924,59.020992,76.782227,195.068344,-3.0,2.0,-42.0
51821.0,1.992188,-2.635864,-0.253174,-23.254393,55.236813,171.203598,-3.0,2.0,-42.0
51855.0,-3.78894,-2.20813,-2.206055,64.331055,-13.122558,-112.18261,-1.0,5.0,-35.0
51888.0,-1.742554,-3.57251,-1.217896,-40.64941,131.835937,-458.129852,-1.0,5.0,-35.0
51919.0,0.966675,-2.885132,-0.747803,-32.897949,161.865219,-505.371063,-1.0,5.0,-35.0
51952.0,3.196167,-0.327271,0.192383,-53.222652,-38.513184,-463.317841,8.0,19.0,-32.0
51984.0,4.0,2.27063,0.893799,33.325195,-49.255367,-309.082031,8.0,19.0,-32.0
52016.0,3.8927,1.937134,1.322632,35.400391,-63.232418,60.18066,8.0,19.0,-32.0
52047.0,2.589355,0.870117,0.804321,-5.615234,-39.123535,328.796356,8.0,14.0,-35.0
52078.0,0.805054,-1.160034,-0.139282,27.038572,34.912109,507.751434,8.0,14.0,-35.0
52112.0,-1.038208,-3.999878,-0.416016,-13.549804,32.226562,393.737762,8.0,14.0,-35.0
52145.0,-1.991089,-1.629517,-0.470947,-13.793944,-174.682602,215.02684,-1.0,3.0,-35.0
52178.0,-0.223511,-3.999878,0.289307,68.603516,-150.268555,-91.491692,-1.0,3.0,-35.0
52211.0,0.91687,0.21521,-1.723389,-5.493164,-43.273922,-129.943848,-1.0,3.0,-35.0
52244.0,0.158325,-3.984375,1.196655,-73.608398,2.685547,1.586914,-1.0,4.0,-38.0
52276.0,-1.242554,0.901855,0.340454,-117.248528,9.94873,-267.883301,-1.0,4.0,-38.0
52308.0,-0.392334,-1.040405,-0.14978,15.747069,-9.765625,59.448238,-1.0,4.0,-38.0
52343.0,-0.24646,-1.43811,-0.055298,-1.586914,19.104004,-2.258301,-2.0,0.0,-38.0
52374.0,-0.59729,-0.854858,-0.204834,48.33984,11.901855,105.895988,-2.0,0.0,-38.0
52405.0,-0.469238,-2.393066,-0.116943,84.228508,78.979492,173.889145,-2.0,0.0,-38.0
52437.0,0.93689,-3.337646,0.707397,38.146973,114.929192,169.677719,0.0,4.0,-36.0
52467.0,-1.137451,-1.734985,-1.720581,10.620116,-83.618156,102.172844,0.0,4.0,-36.0
52498.0,-3.766602,-3.441284,-1.754517,5.432128,-22.460936,-260.925293,0.0,4.0,-36.0
52529.0,-0.933838,-3.936523,-1.42395,-41.076656,202.026352,-502.25827,0.0,4.0,-36.0
52562.0,3.08606,-0.944824,-0.060547,-78.00293,23.010252,-474.304169,5.0,15.0,-38.0
52595.0,4.0,3.008911,0.834229,-25.146482,-80.383293,-374.023407,5.0,15.0,-38.0
52627.0,3.943359,2.133667,1.219482,56.27441,-71.105957,0.671387,5.0,15.0,-38.0
52660.0,2.600952,0.809814,0.663574,44.982906,22.3999,346.435516,8.0,11.0,-37.0
52693.0,0.628296,-0.873901,0.106689,17.822266,93.811028,502.502411,8.0,11.0,-37.0
52725.0,-0.907715,-3.939087,-0.481934,-17.578125,59.631344,407.470673,8.0,11.0,-37.0
52758.0,-2.092041,-0.588013,-0.633057,-69.885254,-153.259277,179.138168,-3.0,9.0,-39.0
52793.0,-2.9021,-2.299561,-1.034546,166.198715,-100.708,-74.157715,-3.0,9.0,-39.0
52826.0,2.303955,0.799072,-0.542603,-191.406235,148.55957,-133.666992,-3.0,9.0,-39.0
52859.0,-0.368652,-2.236938,-1.381226,48.33984,-149.169922,-72.509766,1.0,4.0,-38.0
52892.0,-0.198608,-2.620117,0.774902,-142.700195,27.709959,-155.212402,1.0,4.0,-38.0
52925.0,-0.088745,-1.187744,0.236816,39.306641,-1.220703,-69.519043,1.0,4.0,-38.0
52957.0,-0.485474,-1.345459,-0.021606,42.785641,-19.775391,123.229973,-3.0,4.0,-37.0
52990.0,-0.499146,-1.014771,-0.294678,41.992184,6.04248,63.659664,-3.0,4.0,-37.0
53022.0,-0.444458,-2.41687,0.005859,147.888184,105.468742,182.983383,-3.0,4.0,-37.0
53056.0,0.976074,-2.554443,0.601929,33.02002,112.609856,132.629395,0.0,7.0,-36.0
53087.0,-1.779053,-1.580444,-1.407715,17.63916,-98.083488,120.971672,0.0,7.0,-36.0
53121.0,-3.836182,-3.829468,-1.841675,-60.05859,15.99121,-361.938446,0.0,7.0,-36.0
53154.0,-0.847656,-3.773193,-1.322144,-26.977537,162.963852,-521.911621,0.0,15.0,-33.0
53185.0,2.203125,-1.619873,0.217773,-53.894039,86.120598,-546.569824,0.0,15.0,-33.0
53216.0,4.0,1.441895,1.171875,-54.687496,-95.153801,-506.896942,0.0,15.0,-33.0
53247.0,3.964844,3.612427,1.712646,-27.648924,-61.645504,-222.83934,15.0,16.0,-29.0
53278.0,4.0,1.072388,1.106689,-20.996092,4.455566,443.725555,15.0,16.0,-29.0
53309.0,2.387207,-0.722534,-0.358032,-100.769035,91.247551,659.179626,15.0,16.0,-29.0
53341.0,-0.864136,-3.999878,-0.488159,18.188477,87.585442,561.279297,-1.0,13.0,-31.0
53372.0,-2.121216,-2.908691,-1.285278,146.240234,-280.029297,220.82518,-1.0,13.0,-31.0
53403.0,-3.375854,-1.703003,-1.296997,89.904778,-115.783684,92.224113,-1.0,13.0,-31.0
53435.0,2.911987,-2.978882,0.491211,-37.658691,131.530762,-143.005371,0.0,4.0,-35.0
53466.0,-1.392578,-1.089355,-0.350586,-37.658691,-43.395992,-69.885254,0.0,4.0,-35.0
53497.0,-0.11377,-0.610229,-1.161743,-109.191887,-6.286621,-208.007797,0.0,4.0,-35.0
53529.0,-0.980347,-0.264038,0.957886,-5.554199,67.199707,-58.654781,-1.0,4.0,-34.0
53560.0,-0.172852,-1.291504,-0.171631,36.865234,-52.978512,130.92041,-1.0,4.0,-34.0
53591.0,-0.496216,-0.818359,-0.074585,-7.507324,7.690429,-23.132322,-1.0,4.0,-34.0
53623.0,-0.322144,-1.37085,-0.192627,71.105957,8.422852,140.136719,-1.0,0.0,-38.0
53654.0,-0.608398,-2.039185,0.061401,65.673828,39.916992,145.446777,-1.0,0.0,-38.0
53684.0,1.066528,-3.845093,0.501343,79.467773,92.712395,201.29393,-1.0,0.0,-38.0
53715.0,-0.680664,-0.91394,-1.877808,7.141113,-85.510246,139.038086,-2.0,4.0,-36.0
53746.0,-3.675415,-3.306519,-1.68689,46.630856,33.02002,-221.984848,-2.0,4.0,-36.0
53776.0,-1.489746,-3.999878,-1.268311,-24.902342,202.453598,-496.520966,-2.0,4.0,-36.0
53807.0,0.348877,-3.726929,-0.899292,-64.819336,122.802727,-579.040527,-2.0,4.0,-36.0
53838.0,3.693115,-0.956787,0.185547,-60.546871,-81.17675,-511.718719,12.0,18.0,-28.0
53869.0,4.0,2.997803,1.47583,-3.173828,-29.663084,-354.614227,12.0,18.0,-28.0
53899.0,3.988281,2.72644,2.087402,5.798339,-35.339355,222.778305,12.0,18.0,-28.0
53931.0,3.885864,0.817383,1.202637,-136.71875,109.008781,572.143555,9.0,19.0,-32.0
53961.0,1.06543,-1.534302,0.024902,-218.505844,265.319824,750.915466,9.0,19.0,-32.0
53991.0,-0.996826,-3.869507,-0.910278,382.019012,-273.4375,419.311493,9.0,19.0,-32.0
54022.0,-3.999878,-2.102295,-1.633545,19.897461,-330.932587,93.566887,-1.0,0.0,-34.0
54053.0,-0.540161,-3.58728,0.171753,40.893551,63.903805,-105.957024,-1.0,0.0,-34.0
54083.0,1.737183,0.128662,-2.119263,-82.275383,63.354488,-90.454094,-1.0,0.0,-34.0
54114.0,-0.457153,-2.670532,0.500122,-42.236324,-59.020992,-101.867668,-2.0,7.0,-37.0
54145.0,-1.130981,-1.363159,-0.164917,-98.57177,91.369621,-62.561031,-2.0,7.0,-37.0
54176.0,0.082397,-0.374268,0.308105,64.025879,-8.056641,-46.936031,-2.0,7.0,-37.0
54207.0,-0.995728,-1.315674,0.029419,59.570309,-50.659176,139.892578,-4.0,1.0,-38.0
54239.0,-0.508301,-1.734741,-0.320068,104.37011,43.212887,110.351555,-4.0,1.0,-38.0
54270.0,-0.339844,-2.678345,0.759644,68.481445,76.416016,162.10936,-4.0,1.0,-38.0
54300.0,1.607544,-2.625732,-0.162964,5.798339,-61.401363,201.538071,-4.0,1.0,-38.0
54331.0,-3.293823,-2.333984,-2.402832,18.737793,-78.430176,-80.688469,-1.0,1.0,-33.0
54362.0,-2.425049,-3.831299,-1.483521,-22.644041,171.386703,-404.785126,-1.0,1.0,-33.0
54393.0,-0.492187,-3.928467,-0.858643,-29.296873,207.519516,-556.396484,-1.0,1.0,-33.0
54425.0,2.429077,-2.247437,0.054932,-65.917969,48.156734,-585.81543,9.0,19.0,-31.0
54456.0,4.0,2.219482,1.437134,-37.353516,-71.472168,-486.572235,9.0,19.0,-31.0
54486.0,3.963013,3.103638,2.025024,-25.756834,-86.364738,73.547363,9.0,19.0,-31.0
54517.0,4.0,0.92041,1.184448,-64.147949,21.301268,500.305145,14.0,13.0,-34.0
54548.0,2.971313,-0.928467,-0.151855,-60.05859,91.552727,756.835876,14.0,13.0,-34.0
54578.0,-1.037964,-3.999878,-0.878052,6.713867,34.729004,623.901367,14.0,13.0,-34.0
54609.0,-3.407227,-2.876587,-1.230103,87.036125,-289.550781,262.451172,-5.0,4.0,-36.0
54640.0,-3.523071,-1.612183,-1.099121,53.100582,-118.774406,42.480465,-5.0,4.0,-36.0
54671.0,3.241943,-3.166016,0.345337,-55.725094,68.237305,-233.459457,-5.0,4.0,-36.0
54702.0,-1.826538,-0.08606,-1.340698,-10.681151,-91.857903,-149.475098,-2.0,0.0,-39.0
54733.0,0.304932,-2.216064,0.872925,-75.744629,121.948235,-13.671874,-2.0,0.0,-39.0
54763.0,-1.580322,0.539551,-0.395386,-78.674316,80.627434,-33.569336,-2.0,0.0,-39.0
54793.0,0.346924,-1.106445,0.279175,40.100098,60.791012,-212.036118,-2.0,0.0,-39.0
54824.0,-0.681152,-0.924316,-0.193726,57.373043,-67.199707,157.836914,-1.0,8.0,-32.0
54855.0,-0.290405,-1.039917,-0.138062,-47.119137,23.864744,-34.545898,-1.0,8.0,-32.0
54886.0,-0.422729,-0.653198,0.181763,40.588375,-6.774902,84.411613,-1.0,8.0,-32.0
54918.0,-0.203735,-1.165771,-0.107544,3.234863,-40.40527,69.213867,-2.0,3.0,-35.0
54949.0,-0.295776,-1.038696,-0.091309,22.521971,-14.892577,73.059082,-2.0,3.0,-35.0
54979.0,-0.150513,-0.898682,-0.149536,14.831542,-22.15576,85.083,-2.0,3.0,-35.0
55010.0,-0.23999,-0.891479,0.016357,5.981445,-25.024412,98.205559,-2.0,0.0,-35.0
55041.0,-0.060425,-1.120361,-0.049683,11.474608,-22.644041,87.402336,-2.0,0.0,-35.0
55072.0,-0.134033,-0.981567,-0.109009,14.404296,-5.859375,80.993645,-2.0,0.0,-35.0
55104.0,0.031738,-0.922241,-0.130371,12.817382,26.123045,74.157715,-4.0,0.0,-37.0
55135.0,0.091797,-0.900391,-0.03125,10.559081,-14.404296,62.377926,-4.0,0.0,-37.0
55166.0,0.113525,-0.948242,-0.178711,10.559081,-46.813961,57.495113,-4.0,0.0,-37.0
55197.0,0.143799,-1.130737,-0.211914,2.441406,-23.193357,42.5415,0.0,-3.0,-35.0
55228.0,0.05957,-1.019531,-0.086548,-1.403808,-2.075195,26.550291,0.0,-3.0,-35.0
55258.0,0.17395,-0.968994,-0.119385,4.150391,-3.173828,26.489256,0.0,-3.0,-35.0
55289.0,0.141113,-1.012451,-0.132324,3.356933,-10.437011,21.484373,-2.0,-2.0,-34.0
55320.0,0.131714,-1.021118,-0.155273,1.525879,-5.371093,19.165039,-2.0,-2.0,-34.0
55350.0,0.153564,-0.98999,-0.124756,-3.051758,3.601074,13.97705,-2.0,-2.0,-34.0
55380.0,0.169067,-0.973389,-0.097778,-0.976562,0.12207,15.99121,-2.0,-2.0,-34.0
55411.0,0.155151,-1.013184,-0.123901,-0.488281,-0.366211,13.610839,0.0,-5.0,-41.0
55442.0,0.24353,-0.966675,-0.136475,-0.854492,4.150391,10.009766,0.0,-5.0,-41.0
55473.0,0.20105,-0.998901,-0.119019,0.305176,-12.512206,5.432128,0.0,-5.0,-41.0
55504.0,0.121216,-0.981812,-0.10376,0.305176,-7.751464,6.103515,-1.0,-4.0,-35.0
55535.0,0.193848,-0.983521,-0.12793,1.525879,5.676269,2.807617,-1.0,-4.0,-35.0
55565.0,0.204712,-0.987915,-0.122803,1.647949,0.244141,-2.563476,-1.0,-4.0,-35.0
55597.0,0.198608,-0.990234,-0.141724,1.647949,-2.990722,-1.953125,-1.0,-3.0,-37.0
55628.0,0.163208,-0.990479,-0.10144,-1.220703,2.624511,-8.544922,-1.0,-3.0,-37.0
55658.0,0.190063,-0.989746,-0.113037,-0.732422,8.056641,-11.657714,-1.0,-3.0,-37.0
55689.0,0.137085,-0.99646,-0.131836,-0.915527,9.399414,-12.756347,-3.0,-2.0,-35.0
55720.0,0.15271,-0.994263,-0.12561,-1.953125,8.972168,-14.831542,-3.0,-2.0,-35.0
55750.0,0.132446,-0.999756,-0.122803,-3.479004,11.352538,-17.211914,-3.0,-2.0,-35.0
55783.0,0.093994,-1.004883,-0.119019,-2.563476,14.526366,-11.535644,-1.0,-2.0,-37.0
55814.0,0.19458,-0.979126,-0.161987,-3.784179,14.160155,-12.329101,-1.0,-2.0,-37.0
55844.0,0.074341,-1.012329,-0.096558,-5.554199,12.451171,-14.343261,-1.0,-2.0,-37.0
55877.0,0.045532,-1.013672,-0.085815,-2.807617,19.592285,-9.94873,-2.0,-1.0,-39.0
55908.0,0.128784,-0.998535,-0.126709,-5.859375,22.338865,-17.883301,-2.0,-1.0,-39.0
55938.0,0.158936,-0.964844,-0.145508,-4.272461,24.04785,-23.742674,-2.0,-1.0,-39.0
55969.0,0.071167,-1.007568,-0.106567,-4.455566,25.146482,-29.418943,-2.0,-1.0,-39.0
56001.0,0.103027,-0.993652,-0.156494,-4.943848,19.470215,-30.761717,-4.0,0.0,-33.0
56032.0,0.085205,-1.010132,-0.134644,-9.155273,14.465331,-37.841797,-4.0,0.0,-33.0
56062.0,0.065918,-0.976929,-0.141357,-8.361816,8.911133,-38.574219,-4.0,0.0,-33.0
56093.0,-0.044189,-1.036255,-0.06189,-7.995605,10.009766,-40.039062,-3.0,3.0,-36.0
56124.0,0.005737,-0.988281,-0.126343,-4.455566,12.573241,-36.499023,-3.0,3.0,-36.0
56154.0,-0.063843,-0.999878,-0.079224,-5.249023,12.512206,-39.916992,-3.0,3.0,-36.0
56186.0,-0.055298,-0.984985,-0.09375,1.770019,7.446289,-32.592773,-2.0,3.0,-35.0
56217.0,-0.091187,-0.997559,-0.092896,0.854492,8.911133,-33.447266,-2.0,3.0,-35.0
56247.0,-0.121582,-0.990601,-0.09314,7.080078,5.126953,-27.832029,-2.0,3.0,-35.0
56278.0,-0.106079,-1.005737,-0.139282,1.159668,3.540039,-28.137205,-2.0,5.0,-34.0
56309.0,-0.092896,-1.011108,-0.146973,0.244141,1.586914,-25.512693,-2.0,5.0,-34.0
56339.0,-0.185425,-0.988892,-0.081543,-5.859375,0.915527,-29.602049,-2.0,5.0,-34.0
56371.0,-0.142822,-0.990723,-0.141235,-6.652832,-0.305176,-20.935057,-1.0,5.0,-38.0
56402.0,-0.194824,-1.003052,-0.056152,-11.535644,1.159668,-22.033689,-1.0,5.0,-38.0
56432.0,-0.164795,-0.975464,-0.119019,-12.878417,-6.408691,-19.042969,-1.0,5.0,-38.0
56463.0,-0.157349,-0.999146,-0.118774,-15.441894,-2.01416,-23.681639,-1.0,5.0,-38.0
56495.0,-0.281616,-0.963623,-0.000854,-10.0708,3.601074,-19.165039,-1.0,5.0,-37.0
56526.0,-0.193115,-0.984619,-0.080444,-3.967285,5.249023,-12.512206,-1.0,5.0,-37.0
56556.0,-0.238281,-0.966309,-0.051392,-3.234863,6.896972,-14.343261,-1.0,5.0,-37.0
56587.0,-0.239624,-0.975586,-0.049316,1.770019,7.385253,-10.925292,-1.0,7.0,-34.0
56618.0,-0.25293,-0.97644,-0.07312,3.112793,4.638672,-6.713867,-1.0,7.0,-34.0
56648.0,-0.267334,-0.964111,-0.056763,6.958007,11.291503,-3.356933,-1.0,7.0,-34.0
56679.0,-0.214111,-0.977051,-0.085205,10.19287,7.873535,-0.305176,-1.0,5.0,-36.0
56710.0,-0.241455,-0.982544,-0.080078,8.056641,6.652832,0.366211,-1.0,5.0,-36.0
56740.0,-0.241211,-0.97644,-0.098145,6.469726,7.690429,1.708984,-1.0,5.0,-36.0
56771.0,-0.209595,-0.984131,-0.099487,5.432128,11.291503,0.793457,-2.0,7.0,-33.0
56802.0,-0.241943,-0.978271,-0.077393,4.02832,14.404296,-4.333496,-2.0,7.0,-33.0
56833.0,-0.206421,-0.980103,-0.106079,5.981445,11.413573,-4.699707,-2.0,7.0,-33.0
56864.0,-0.249023,-0.971313,-0.08606,3.540039,13.793944,-7.446289,0.0,8.0,-39.0
56895.0,-0.235352,-0.977539,-0.100952,3.967285,10.742187,-7.080078,0.0,8.0,-39.0
56926.0,-0.235596,-0.980225,-0.110107,-0.183105,10.925292,-8.300781,0.0,8.0,-39.0
56958.0,-0.258911,-0.965698,-0.087646,-4.089355,9.338379,-9.765625,0.0,10.0,-35.0
56989.0,-0.264526,-0.977417,-0.084961,-6.286621,8.666992,-8.850098,0.0,10.0,-35.0
57019.0,-0.263184,-0.962646,-0.075684,-7.141113,5.615234,-7.995605,0.0,10.0,-35.0
57050.0,-0.282227,-0.960693,-0.06665,-5.737304,3.173828,-5.371093,0.0,10.0,-35.0
57081.0,-0.296753,-0.960571,-0.045776,-3.234863,3.295898,-2.441406,0.0,10.0,-36.0
57112.0,-0.269653,-0.958252,-0.073486,-0.915527,1.281738,1.220703,0.0,10.0,-36.0
57142.0,-0.283936,-0.971313,-0.070312,-2.258301,2.197266,1.647949,0.0,10.0,-36.0
57173.0,-0.261719,-0.970703,-0.075684,-2.075195,1.525879,2.075195,-1.0,9.0,-33.0
57204.0,-0.268921,-0.969604,-0.071167,-2.197266,3.051758,2.197266,-1.0,9.0,-33.0
57235.0,-0.266113,-0.962646,-0.066528,-2.380371,2.685547,1.342773,-1.0,9.0,-33.0
57266.0,-0.269531,-0.970093,-0.060547,-1.770019,0.732422,1.770019,0.0,10.0,-31.0
57297.0,-0.266968,-0.962891,-0.062866,-2.13623,1.770019,1.586914,0.0,10.0,-31.0
57327.0,-0.25293,-0.97229,-0.07312,-1.525879,1.647949,1.220703,0.0,10.0,-31.0
57359.0,-0.26001,-0.96875,-0.056519,-1.525879,1.403808,-0.549316,0.0,8.0,-31.0
57390.0,-0.261475,-0.966064,-0.063599,-1.098633,0.12207,-1.403808,0.0,8.0,-31.0
57421.0,-0.265503,-0.970459,-0.064819,-1.159668,1.281738,-2.258301,0.0,8.0,-31.0
57453.0,-0.267822,-0.962036,-0.053223,-0.244141,0.610352,-2.990722,-1.0,9.0,-37.0
57484.0,-0.270264,-0.964722,-0.062012,0.915527,0.915527,-2.563476,-1.0,9.0,-37.0
57515.0,-0.274048,-0.96167,-0.056396,2.197266,0.793457,-2.746582,-1.0,9.0,-37.0
57547.0,-0.283447,-0.961304,-0.05896,3.295898,0.0,-2.258301,0.0,8.0,-34.0
57578.0,-0.277344,-0.963257,-0.064087,4.089355,0.244141,-1.220703,0.0,8.0,-34.0
57608.0,-0.273804,-0.96814,-0.075806,4.333496,0.183105,-0.671387,0.0,8.0,-34.0
57638.0,-0.279907,-0.963501,-0.071777,3.845215,0.976562,-0.854492,0.0,8.0,-34.0
57669.0,-0.275879,-0.962891,-0.072632,3.845215,0.976562,-0.549316,0.0,9.0,-32.0
57700.0,-0.28064,-0.963989,-0.077148,3.723144,0.854492,-0.244141,0.0,9.0,-32.0
57731.0,-0.277832,-0.967651,-0.081787,2.990722,1.403808,0.244141,0.0,9.0,-32.0
57762.0,-0.281128,-0.960083,-0.075806,2.319336,1.953125,0.549316,-2.0,12.0,-39.0
57793.0,-0.275024,-0.966187,-0.087158,2.197266,0.732422,0.671387,-2.0,12.0,-39.0
57824.0,-0.278198,-0.963013,-0.079102,1.525879,1.342773,0.732422,-2.0,12.0,-39.0
57856.0,-0.276245,-0.96521,-0.085571,1.403808,1.159668,0.976562,0.0,10.0,-34.0
57887.0,-0.276123,-0.967651,-0.086304,0.610352,2.13623,1.098633,0.0,10.0,-34.0
57918.0,-0.273071,-0.961792,-0.082764,0.0,2.258301,0.671387,0.0,10.0,-34.0
57949.0,-0.270508,-0.967896,-0.085327,-0.488281,1.586914,0.0,0.0,10.0,-35.0
57979.0,-0.27356,-0.966431,-0.084961,-1.281738,1.831055,-0.366211,0.0,10.0,-35.0
58009.0,-0.274902,-0.964844,-0.08252,-1.953125,2.380371,-0.610352,0.0,10.0,-35.0
58040.0,-0.273438,-0.963013,-0.077881,-1.647949,1.831055,-1.037598,0.0,10.0,-34.0
58071.0,-0.275757,-0.963867,-0.082153,-1.647949,1.525879,-1.037598,0.0,10.0,-34.0
58102.0,-0.281006,-0.963501,-0.074707,-1.647949,1.586914,-1.037598,0.0,10.0,-34.0
58133.0,-0.277466,-0.963501,-0.077148,-1.647949,1.586914,-0.793457,0.0,10.0,-34.0
58165.0,-0.279419,-0.962891,-0.075317,-1.586914,1.464844,-0.976562,1.0,12.0,-33.0
58196.0,-0.279785,-0.963013,-0.074341,-1.831055,1.159668,-0.915527,1.0,12.0,-33.0
58227.0,-0.276611,-0.963257,-0.075928,-1.708984,0.915527,-1.159668,1.0,12.0,-33.0
58258.0,-0.281372,-0.963013,-0.071655,-1.403808,0.915527,-1.037598,1.0,12.0,-33.0
58289.0,-0.28125,-0.961914,-0.07373,-1.098633,0.915527,-1.220703,1.0,12.0,-33.0
58320.0,-0.282593,-0.961792,-0.072266,-0.671387,0.244141,-1.342773,1.0,12.0,-33.0
58352.0,-0.280518,-0.965088,-0.074097,-0.793457,0.671387,-1.037598,-2.0,9.0,-38.0
58383.0,-0.285156,-0.959717,-0.071533,-1.037598,0.549316,-1.159668,-2.0,9.0,-38.0
58414.0,-0.283081,-0.961304,-0.073242,-0.854492,0.366211,-1.098633,-2.0,9.0,-38.0
58446.0,-0.285767,-0.96228,-0.072266,-0.793457,0.366211,-1.098633,0.0,10.0,-38.0
58477.0,-0.282471,-0.962158,-0.074707,-1.220703,0.488281,-0.976562,0.0,10.0,-38.0
58508.0,-0.287476,-0.959961,-0.070312,-1.220703,0.366211,-1.220703,0.0,10.0,-38.0
58540.0,-0.287964,-0.962402,-0.069946,-0.976562,0.610352,-1.098633,-1.0,10.0,-37.0
58571.0,-0.283203,-0.962524,-0.070068,-0.549316,0.671387,-0.976562,-1.0,10.0,-37.0
58602.0,-0.290161,-0.960937,-0.068359,-0.366211,0.366211,-1.220703,-1.0,10.0,-37.0
58634.0,-0.28833,-0.960693,-0.071167,-0.427246,0.549316,-0.976562,0.0,9.0,-32.0
58665.0,-0.289429,-0.960815,-0.068481,0.12207,-0.061035,-0.854492,0.0,9.0,-32.0
58695.0,-0.289551,-0.959473,-0.069946,0.244141,0.427246,-0.671387,0.0,9.0,-32.0
58726.0,-0.290283,-0.959717,-0.068848,0.671387,-0.244141,-0.488281,0.0,11.0,-30.0
58757.0,-0.290894,-0.957642,-0.070557,0.732422,-0.305176,-0.244141,0.0,11.0,-30.0
58788.0,-0.289795,-0.960571,-0.072266,0.976562,0.12207,-0.061035,0.0,11.0,-30.0
58819.0,-0.28894,-0.958984,-0.072266,1.281738,-0.488281,-0.244141,0.0,11.0,-30.0
58851.0,-0.289917,-0.958252,-0.072998,1.037598,0.0,-0.12207,0.0,11.0,-35.0
58882.0,-0.288818,-0.959839,-0.074829,1.342773,-0.244141,-0.244141,0.0,11.0,-35.0
58913.0,-0.290283,-0.960815,-0.077759,1.220703,0.12207,-0.305176,0.0,11.0,-35.0
58944.0,-0.290649,-0.959473,-0.076904,1.159668,0.244141,-0.488281,0.0,10.0,-35.0
58975.0,-0.289917,-0.958984,-0.078247,0.976562,0.305176,-0.549316,0.0,10.0,-35.0
59006.0,-0.291138,-0.96167,-0.078247,0.732422,0.061035,-0.793457,0.0,10.0,-35.0
59039.0,-0.29248,-0.959351,-0.081299,0.305176,0.366211,-0.610352,1.0,10.0,-30.0
59070.0,-0.291138,-0.960693,-0.07959,0.061035,0.366211,-0.793457,1.0,10.0,-30.0
59100.0,-0.292847,-0.959595,-0.078491,0.0,0.610352,-0.976562,1.0,10.0,-30.0
59131.0,-0.294434,-0.959351,-0.07959,-0.061035,1.098633,-0.854492,-1.0,9.0,-33.0
59162.0,-0.294434,-0.95874,-0.082886,0.061035,1.037598,-0.854492,-1.0,9.0,-33.0
59193.0,-0.293213,-0.95752,-0.079956,-0.244141,1.037598,-0.671387,-1.0,9.0,-33.0
59224.0,-0.294922,-0.95874,-0.079956,-0.305176,0.793457,-0.976562,1.0,11.0,-35.0
59255.0,-0.293091,-0.956787,-0.079224,-0.183105,0.549316,-1.159668,1.0,11.0,-35.0
59285.0,-0.295898,-0.958374,-0.081299,-0.244141,0.549316,-1.098633,1.0,11.0,-35.0
59316.0,-0.296265,-0.956543,-0.080688,-0.366211,0.610352,-1.098633,0.0,8.0,-32.0
59347.0,-0.297974,-0.956665,-0.079956,-0.427246,0.610352,-1.098633,0.0,8.0,-32.0
59378.0,-0.298096,-0.956665,-0.081299,-0.366211,0.549316,-1.098633,0.0,8.0,-32.0
59408.0,-0.299316,-0.95813,-0.078979,-0.427246,0.793457,-0.915527,0.0,8.0,-32.0
59439.0,-0.297607,-0.956421,-0.078125,-0.305176,0.793457,-0.854492,1.0,9.0,-30.0
59470.0,-0.300049,-0.956421,-0.079956,-0.427246,0.854492,-0.793457,1.0,9.0,-30.0
59501.0,-0.297974,-0.957031,-0.079834,-0.549316,0.671387,-0.732422,1.0,9.0,-30.0
59533.0,-0.300781,-0.956421,-0.079224,-0.793457,0.427246,-0.732422,0.0,11.0,-33.0
59564.0,-0.299194,-0.957031,-0.078735,-0.793457,0.793457,-0.671387,0.0,11.0,-33.0
59595.0,-0.301758,-0.956421,-0.079224,-0.793457,0.427246,-0.488281,0.0,11.0,-33.0
59627.0,-0.299927,-0.956787,-0.079346,-1.098633,0.915527,-0.427246,-2.0,11.0,-38.0
59658.0,-0.302612,-0.956665,-0.077881,-1.098633,0.549316,-0.793457,-2.0,11.0,-38.0
59689.0,-0.301147,-0.956909,-0.075806,-1.342773,0.976562,-0.854492,-2.0,11.0,-38.0
59721.0,-0.302124,-0.954468,-0.077759,-1.647949,0.549316,-0.854492,0.0,10.0,-28.0
59752.0,-0.302856,-0.957153,-0.074829,-1.89209,0.244141,-0.732422,0.0,10.0,-28.0
59783.0,-0.30481,-0.9552,-0.074707,-1.89209,0.732422,-0.610352,0.0,10.0,-28.0
59815.0,-0.302979,-0.953613,-0.073608,-1.403808,0.427246,-0.610352,0.0,10.0,-35.0
59846.0,-0.307007,-0.956909,-0.070923,-1.098633,0.488281,-0.244141,0.0,10.0,-35.0
59877.0,-0.304199,-0.953857,-0.075317,-1.098633,0.610352,-0.305176,0.0,10.0,-35.0
59909.0,-0.30481,-0.956177,-0.072266,-1.220703,0.366211,-0.488281,0.0,10.0,-33.0
59940.0,-0.303223,-0.956787,-0.072388,-1.281738,0.915527,-0.488281,0.0,10.0,-33.0
59971.0,-0.30603,-0.956055,-0.07019,-0.915527,0.671387,-0.671387,0.0,10.0,-33.0
60002.0,-0.306396,-0.954712,-0.071655,-0.793457,0.549316,-0.610352,1.0,10.0,-40.0
60033.0,-0.305664,-0.955811,-0.070557,-0.732422,0.976562,-0.549316,1.0,10.0,-40.0
60063.0,-0.307007,-0.955933,-0.072388,-0.732422,0.671387,-0.610352,1.0,10.0,-40.0
60094.0,-0.307129,-0.954712,-0.070068,-0.793457,0.793457,-0.305176,1.0,10.0,-40.0
60126.0,-0.305786,-0.953247,-0.072754,-0.671387,0.488281,-0.366211,0.0,11.0,-37.0
60157.0,-0.305298,-0.955444,-0.069702,-0.610352,0.671387,-0.183105,0.0,11.0,-37.0
60187.0,-0.308838,-0.955322,-0.071655,-0.427246,0.244141,-0.244141,0.0,11.0,-37.0
60219.0,-0.307129,-0.953491,-0.071167,-0.671387,0.488281,-0.12207,0.0,13.0,-38.0
60250.0,-0.307373,-0.957153,-0.072876,-0.793457,0.366211,-0.12207,0.0,13.0,-38.0
60281.0,-0.305908,-0.9552,-0.067383,-0.854492,0.976562,-0.305176,0.0,13.0,-38.0
60312.0,-0.308472,-0.9552,-0.069336,-0.671387,0.427246,-0.366211,0.0,10.0,-35.0
60343.0,-0.307617,-0.954346,-0.06897,-0.610352,0.671387,-0.366211,0.0,10.0,-35.0
60373.0,-0.306152,-0.953247,-0.069824,-0.549316,0.427246,-0.305176,0.0,10.0,-35.0
60404.0,-0.312256,-0.955811,-0.067505,-0.610352,0.610352,-0.12207,0.0,10.0,-40.0
60435.0,-0.307617,-0.953247,-0.070312,-0.549316,0.915527,0.0,0.0,10.0,-40.0
60465.0,-0.307373,-0.954102,-0.068604,-0.305176,0.244141,-0.12207,0.0,10.0,-40.0
60497.0,-0.310303,-0.955444,-0.071045,-0.305176,0.12207,-0.244141,0.0,9.0,-35.0
60528.0,-0.307495,-0.954712,-0.068359,-0.305176,0.366211,-0.183105,0.0,9.0,-35.0
60558.0,-0.311646,-0.953857,-0.069336,-0.305176,0.061035,-0.183105,0.0,9.0,-35.0
60589.0,-0.310181,-0.955566,-0.06897,-0.244141,0.427246,-0.061035,0.0,9.0,-35.0
60620.0,-0.307617,-0.953613,-0.069702,-0.244141,0.488281,-0.061035,0.0,9.0,-37.0
60651.0,-0.310181,-0.953369,-0.067993,-0.244141,0.183105,0.061035,0.0,9.0,-37.0
60682.0,-0.311035,-0.953735,-0.068848,-0.12207,0.12207,0.0,0.0,9.0,-37.0
60714.0,-0.308105,-0.955933,-0.06958,-0.12207,0.427246,-0.061035,0.0,13.0,-41.0
60745.0,-0.309204,-0.953125,-0.069824,-0.061035,0.305176,-0.061035,0.0,13.0,-41.0
60776.0,-0.31189,-0.954102,-0.069458,-0.183105,0.366211,-0.12207,0.0,13.0,-41.0
60808.0,-0.305542,-0.953979,-0.071777,-0.12207,0.427246,-0.061035,0.0,12.0,-32.0
60839.0,-0.312622,-0.952026,-0.068481,-0.061035,0.244141,-0.305176,0.0,12.0,-32.0
60870.0,-0.308838,-0.955688,-0.072388,-0.244141,0.12207,-0.183105,0.0,12.0,-32.0
60903.0,-0.309082,-0.952881,-0.069092,-0.183105,0.12207,-0.061035,-1.0,10.0,-31.0
60934.0,-0.310547,-0.955078,-0.069946,-0.12207,0.183105,-0.244141,-1.0,10.0,-31.0
60965.0,-0.30835,-0.952271,-0.070923,-0.061035,0.427246,-0.244141,-1.0,10.0,-31.0
60997.0,-0.311401,-0.952881,-0.071411,-0.061035,0.0,-0.244141,2.0,10.0,-31.0
61028.0,-0.312134,-0.953735,-0.06958,-0.12207,0.0,-0.12207,2.0,10.0,-31.0
61059.0,-0.309937,-0.954346,-0.071533,0.061035,0.0,-0.183105,2.0,10.0,-31.0
61090.0,-0.311646,-0.952759,-0.070923,0.244141,0.12207,-0.12207,1.0,9.0,-33.0
61121.0,-0.310913,-0.952026,-0.072266,0.366211,0.0,-0.061035,1.0,9.0,-33.0
61151.0,-0.311035,-0.95459,-0.070801,0.366211,-0.183105,-0.12207,1.0,9.0,-33.0
61183.0,-0.311035,-0.953369,-0.074341,0.244141,0.0,-0.183105,0.0,11.0,-32.0
61214.0,-0.310913,-0.953979,-0.072754,0.244141,0.305176,-0.305176,0.0,11.0,-32.0
61245.0,-0.311279,-0.953003,-0.073242,0.305176,0.183105,-0.305176,0.0,11.0,-32.0
61276.0,-0.313477,-0.952393,-0.074097,0.244141,0.183105,-0.244141,0.0,11.0,-32.0
61308.0,-0.310303,-0.953247,-0.075073,0.061035,0.427246,-0.244141,0.0,10.0,-35.0
61339.0,-0.312378,-0.953247,-0.075073,-0.183105,0.305176,-0.366211,0.0,10.0,-35.0
61370.0,-0.3125,-0.952759,-0.073242,-0.183105,0.305176,-0.244141,0.0,10.0,-35.0
61402.0,-0.311523,-0.953247,-0.074951,-0.183105,0.061035,-0.427246,1.0,10.0,-32.0
61433.0,-0.313843,-0.953003,-0.074097,-0.183105,0.183105,-0.366211,1.0,10.0,-32.0
61464.0,-0.313232,-0.953491,-0.075684,-0.183105,0.488281,-0.244141,1.0,10.0,-32.0
61495.0,-0.313354,-0.95105,-0.073486,-0.305176,0.244141,-0.244141,-1.0,11.0,-35.0
61526.0,-0.311523,-0.954712,-0.074707,-0.244141,0.244141,-0.305176,-1.0,11.0,-35.0
61557.0,-0.315186,-0.952759,-0.074951,-0.427246,0.183105,-0.244141,-1.0,11.0,-35.0
61589.0,-0.313354,-0.953491,-0.077148,-0.671387,0.244141,-0.183105,0.0,13.0,-32.0
61620.0,-0.3125,-0.953613,-0.074463,-0.671387,-0.12207,-0.427246,0.0,13.0,-32.0
61650.0,-0.315308,-0.953857,-0.074585,-0.732422,0.549316,-0.488281,0.0,13.0,-32.0
61681.0,-0.313599,-0.950806,-0.073853,-0.732422,0.427246,-0.427246,1.0,12.0,-37.0
61713.0,-0.314941,-0.951172,-0.074219,-0.671387,0.305176,-0.305176,1.0,12.0,-37.0
61744.0,-0.315674,-0.951416,-0.074341,-0.671387,0.183105,-0.12207,1.0,12.0,-37.0
61775.0,-0.314941,-0.952881,-0.07312,-0.793457,0.366211,-0.244141,0.0,12.0,-34.0
61806.0,-0.314697,-0.952637,-0.073975,-0.610352,0.244141,-0.12207,0.0,12.0,-34.0
61837.0,-0.316162,-0.951782,-0.07373,-0.610352,0.12207,-0.12207,0.0,12.0,-34.0
61869.0,-0.31604,-0.95166,-0.072876,-0.488281,-0.061035,0.0,1.0,10.0,-34.0
61900.0,-0.314697,-0.952026,-0.074951,-0.549316,0.0,0.0,1.0,10.0,-34.0
61931.0,-0.315796,-0.952148,-0.072632,-0.549316,-0.061035,-0.183105,1.0,10.0,-34.0
61962.0,-0.314819,-0.952637,-0.074829,-0.427246,-0.061035,-0.061035,1.0,10.0,-34.0
61994.0,-0.315308,-0.951294,-0.072388,-0.366211,0.0,0.061035,1.0,11.0,-37.0
62025.0,-0.316284,-0.952637,-0.075073,-0.427246,0.0,0.12207,1.0,11.0,-37.0
62055.0,-0.314941,-0.952271,-0.07373,-0.488281,-0.061035,0.12207,1.0,11.0,-37.0
62087.0,-0.31543,-0.952148,-0.072754,-0.427246,-0.061035,0.12207,0.0,11.0,-35.0
62118.0,-0.316528,-0.951294,-0.074585,-0.427246,-0.183105,0.183105,0.0,11.0,-35.0
62149.0,-0.315796,-0.951782,-0.072144,-0.305176,-0.12207,0.061035,0.0,11.0,-35.0
62181.0,-0.314331,-0.950684,-0.073975,-0.427246,0.0,0.12207,2.0,12.0,-36.0
62212.0,-0.313599,-0.953979,-0.075073,-0.183105,-0.183105,0.244141,2.0,12.0,-36.0
62242.0,-0.316284,-0.951538,-0.074951,-0.366211,-0.12207,0.0,2.0,12.0,-36.0
62274.0,-0.314087,-0.949707,-0.074951,-0.610352,-0.12207,0.12207,0.0,11.0,-35.0
62305.0,-0.314697,-0.953003,-0.074829,-0.488281,-0.305176,0.061035,0.0,11.0,-35.0
62336.0,-0.315918,-0.953857,-0.074341,-0.366211,0.244141,-0.12207,0.0,11.0,-35.0
62368.0,-0.313354,-0.95105,-0.073486,-0.305176,-0.12207,-0.12207,2.0,11.0,-36.0
62399.0,-0.316895,-0.951294,-0.072754,-0.305176,-0.183105,0.12207,2.0,11.0,-36.0
62430.0,-0.314697,-0.95105,-0.073608,-0.183105,-0.183105,0.244141,2.0,11.0,-36.0
62462.0,-0.314575,-0.953491,-0.074219,-0.244141,-0.244141,0.183105,0.0,9.0,-35.0
62493.0,-0.314575,-0.951416,-0.073975,-0.183105,-0.366211,0.0,0.0,9.0,-35.0
62524.0,-0.31665,-0.95105,-0.074829,-0.183105,-0.488281,-0.061035,0.0,9.0,-35.0
62556.0,-0.31543,-0.951294,-0.076538,-0.12207,-0.305176,0.061035,0.0,12.0,-31.0
62587.0,-0.314209,-0.952881,-0.076538,-0.366211,-0.12207,-0.061035,0.0,12.0,-31.0
62618.0,-0.315063,-0.951172,-0.076904,-0.427246,0.061035,-0.305176,0.0,12.0,-31.0
62649.0,-0.313354,-0.951904,-0.077515,-0.427246,-0.061035,-0.244141,0.0,12.0,-31.0
62681.0,-0.317139,-0.95105,-0.076782,-0.732422,0.244141,-0.244141,0.0,10.0,-39.0
62712.0,-0.316895,-0.952637,-0.074097,-0.793457,0.427246,-0.061035,0.0,10.0,-39.0
62743.0,-0.315552,-0.951416,-0.077026,-0.793457,0.427246,0.12207,0.0,10.0,-39.0
62775.0,-0.315918,-0.950317,-0.074707,-0.732422,0.366211,0.12207,0.0,9.0,-33.0
62806.0,-0.314453,-0.95166,-0.074219,-0.854492,0.549316,0.244141,0.0,9.0,-33.0
62837.0,-0.315796,-0.951782,-0.073853,-1.037598,0.488281,0.244141,0.0,9.0,-33.0
62868.0,-0.314331,-0.951904,-0.073975,-1.037598,0.427246,0.061035,-1.0,11.0,-35.0
62899.0,-0.315796,-0.951416,-0.071411,-0.854492,0.427246,0.12207,-1.0,11.0,-35.0
62930.0,-0.313599,-0.951782,-0.073486,-0.854492,0.488281,0.061035,-1.0,11.0,-35.0
62962.0,-0.314819,-0.953247,-0.07251,-0.793457,0.12207,-0.061035,0.0,11.0,-33.0
62993.0,-0.316284,-0.951904,-0.071655,-0.793457,0.488281,-0.061035,0.0,11.0,-33.0
63024.0,-0.313843,-0.954102,-0.073364,-0.976562,0.244141,-0.12207,0.0,11.0,-33.0
63056.0,-0.315552,-0.951538,-0.071045,-0.976562,0.061035,-0.183105,-1.0,11.0,-38.0
63087.0,-0.31665,-0.951782,-0.072266,-0.915527,0.0,-0.427246,-1.0,11.0,-38.0
63118.0,-0.315063,-0.953491,-0.071167,-0.915527,0.061035,-0.610352,-1.0,11.0,-38.0
63150.0,-0.317505,-0.951294,-0.070801,-0.732422,0.12207,-0.549316,0.0,11.0,-31.0
63181.0,-0.318359,-0.950928,-0.070557,-0.610352,-0.183105,-0.488281,0.0,11.0,-31.0
63212.0,-0.318604,-0.950806,-0.071533,-0.732422,0.0,-0.366211,0.0,11.0,-31.0
63244.0,-0.316406,-0.951782,-0.073364,-0.610352,0.0,-0.366211,0.0,13.0,-37.0
63275.0,-0.320557,-0.950684,-0.070068,-0.549316,0.061035,-0.305176,0.0,13.0,-37.0
63306.0,-0.317017,-0.952148,-0.07019,-0.610352,0.0,-0.427246,0.0,13.0,-37.0
63337.0,-0.318115,-0.950439,-0.07251,-0.610352,0.0,-0.366211,0.0,13.0,-37.0
63368.0,-0.317261,-0.950806,-0.070679,-0.549316,0.183105,-0.244141,-1.0,12.0,-29.0
63400.0,-0.31897,-0.95105,-0.071533,-0.549316,0.12207,-0.183105,-1.0,12.0,-29.0
63431.0,-0.317993,-0.949951,-0.071777,-0.488281,0.183105,-0.183105,-1.0,12.0,-29.0
63463.0,-0.319214,-0.950317,-0.069946,-0.488281,0.0,-0.244141,-1.0,11.0,-39.0
63494.0,-0.319214,-0.949951,-0.072632,-0.549316,0.183105,-0.12207,-1.0,11.0,-39.0
63526.0,-0.317871,-0.950317,-0.069336,-0.366211,0.12207,0.12207,-1.0,11.0,-39.0
63558.0,-0.319702,-0.950195,-0.068359,-0.366211,0.183105,0.12207,0.0,12.0,-38.0
63589.0,-0.32019,-0.950684,-0.071167,-0.244141,0.061035,0.305176,0.0,12.0,-38.0
63620.0,-0.319214,-0.951294,-0.072754,-0.244141,0.061035,0.610352,0.0,12.0,-38.0
63652.0,-0.318481,-0.950562,-0.071045,-0.244141,0.183105,0.610352,1.0,11.0,-33.0
63684.0,-0.317505,-0.950684,-0.069824,-0.183105,0.244141,0.427246,1.0,11.0,-33.0
63715.0,-0.316895,-0.952515,-0.072388,-0.183105,0.183105,0.488281,1.0,11.0,-33.0
63747.0,-0.317871,-0.952148,-0.071289,-0.183105,0.305176,0.366211,-1.0,10.0,-31.0
63778.0,-0.31543,-0.951416,-0.071533,-0.12207,0.12207,0.12207,-1.0,10.0,-31.0
63808.0,-0.317139,-0.951416,-0.072754,-0.305176,0.12207,0.061035,-1.0,10.0,-31.0
63840.0,-0.318726,-0.950684,-0.071045,-0.244141,0.244141,0.061035,0.0,15.0,-37.0
63872.0,-0.316284,-0.951782,-0.072021,-0.244141,0.12207,-0.12207,0.0,15.0,-37.0
63904.0,-0.318115,-0.951904,-0.071655,-0.305176,0.183105,-0.12207,0.0,15.0,-37.0
63936.0,-0.318237,-0.950684,-0.07312,-0.427246,-0.12207,-0.12207,1.0,9.0,-33.0
63968.0,-0.318848,-0.950928,-0.072632,-0.427246,-0.12207,-0.183105,1.0,9.0,-33.0
64000.0,-0.315063,-0.952637,-0.071167,-0.366211,-0.061035,-0.427246,1.0,9.0,-33.0
64032.0,-0.318481,-0.95105,-0.071777,-0.183105,-0.183105,-0.671387,0.0,10.0,-32.0
64063.0,-0.320557,-0.950684,-0.071289,-0.183105,-0.12207,-0.488281,0.0,10.0,-32.0
64094.0,-0.319458,-0.948364,-0.073975,-0.061035,-0.12207,-0.305176,0.0,10.0,-32.0
64125.0,-0.32019,-0.949707,-0.072388,0.0,-0.244141,-0.12207,0.0,10.0,-32.0
64157.0,-0.318481,-0.951538,-0.073608,0.061035,0.061035,-0.12207,0.0,10.0,-31.0
64188.0,-0.318848,-0.949829,-0.074097,0.12207,0.0,-0.244141,0.0,10.0,-31.0
64219.0,-0.320923,-0.950439,-0.07251,0.0,0.0,-0.244141,0.0,10.0,-31.0
64251.0,-0.319702,-0.949097,-0.075684,0.061035,0.0,0.0,0.0,13.0,-34.0
64282.0,-0.319458,-0.950928,-0.073608,0.0,0.12207,0.12207,0.0,13.0,-34.0
64313.0,-0.320313,-0.949097,-0.074219,0.183105,0.244141,0.061035,0.0,13.0,-34.0
64345.0,-0.321167,-0.950195,-0.075806,0.12207,0.183105,0.12207,0.0,11.0,-35.0
64376.0,-0.319214,-0.950562,-0.07666,0.12207,0.183105,0.183105,0.0,11.0,-35.0
64406.0,-0.319946,-0.950806,-0.074829,0.061035,0.183105,0.244141,0.0,11.0,-35.0
64438.0,-0.319092,-0.95105,-0.075928,0.0,0.12207,0.183105,-2.0,11.0,-38.0
64469.0,-0.319458,-0.949951,-0.076416,0.061035,-0.061035,0.061035,-2.0,11.0,-38.0
64500.0,-0.31897,-0.950195,-0.076416,-0.12207,-0.061035,0.183105,-2.0,11.0,-38.0
64532.0,-0.318726,-0.950806,-0.07605,-0.061035,-0.12207,-0.061035,0.0,11.0,-33.0
64563.0,-0.319336,-0.950806,-0.078003,0.0,-0.183105,0.0,0.0,11.0,-33.0
64594.0,-0.317505,-0.948853,-0.077637,0.0,0.061035,0.0,0.0,11.0,-33.0
64626.0,-0.319946,-0.950562,-0.077026,-0.244141,-0.12207,-0.12207,3.0,10.0,-36.0
64657.0,-0.320557,-0.951172,-0.076904,-0.12207,-0.061035,-0.183105,3.0,10.0,-36.0
64688.0,-0.320313,-0.949707,-0.077393,0.061035,-0.12207,-0.12207,3.0,10.0,-36.0
64720.0,-0.319214,-0.949463,-0.078857,-0.244141,-0.183105,-0.12207,0.0,8.0,-33.0
64752.0,-0.31958,-0.949463,-0.075928,-0.305176,-0.244141,-0.061035,0.0,8.0,-33.0
64784.0,-0.319702,-0.948486,-0.078735,-0.12207,-0.366211,-0.183105,0.0,8.0,-33.0
64816.0,-0.319092,-0.952026,-0.076782,0.12207,-0.305176,-0.244141,0.0,10.0,-35.0
64847.0,-0.320435,-0.948608,-0.078247,0.12207,-0.244141,-0.305176,0.0,10.0,-35.0
64878.0,-0.319946,-0.94873,-0.079468,0.183105,-0.366211,-0.12207,0.0,10.0,-35.0
64909.0,-0.321045,-0.951294,-0.079834,0.305176,-0.366211,0.0,0.0,10.0,-35.0
64941.0,-0.320435,-0.947632,-0.079712,-0.061035,-0.427246,0.061035,1.0,8.0,-31.0
64972.0,-0.320313,-0.949707,-0.080811,0.183105,-0.488281,0.305176,1.0,8.0,-31.0
65003.0,-0.320068,-0.948608,-0.080566,0.427246,-0.183105,0.488281,1.0,8.0,-31.0
65035.0,-0.318237,-0.949707,-0.083374,0.183105,-0.244141,0.488281,0.0,10.0,-37.0
65066.0,-0.321167,-0.950684,-0.083008,0.12207,-0.244141,0.488281,0.0,10.0,-37.0
65097.0,-0.319092,-0.948975,-0.083618,-0.305176,0.12207,0.488281,0.0,10.0,-37.0
65129.0,-0.319824,-0.949463,-0.082031,-0.549316,0.0,0.610352,0.0,10.0,-33.0
65160.0,-0.318604,-0.951416,-0.083252,-0.793457,0.427246,0.549316,0.0,10.0,-33.0
65191.0,-0.31897,-0.94873,-0.081543,-0.854492,0.305176,0.610352,0.0,10.0,-33.0
65223.0,-0.319214,-0.950562,-0.080322,-0.915527,0.183105,0.732422,0.0,11.0,-37.0
65254.0,-0.319458,-0.951904,-0.082275,-1.281738,0.305176,0.732422,0.0,11.0,-37.0
65285.0,-0.317993,-0.950806,-0.081543,-1.281738,0.244141,0.488281,0.0,11.0,-37.0
65317.0,-0.317261,-0.951172,-0.080078,-1.403808,0.183105,0.427246,2.0,10.0,-39.0
65348.0,-0.315186,-0.949585,-0.080444,-1.586914,0.305176,0.305176,2.0,10.0,-39.0
65379.0,-0.317383,-0.950562,-0.078613,-1.708984,0.0,0.183105,2.0,10.0,-39.0
65411.0,-0.317993,-0.95166,-0.077637,-1.525879,0.183105,0.305176,0.0,10.0,-31.0
65441.0,-0.317627,-0.950195,-0.076416,-1.586914,0.0,0.183105,0.0,10.0,-31.0
65472.0,-0.315918,-0.950684,-0.078247,-1.586914,-0.244141,0.427246,0.0,10.0,-31.0
65504.0,-0.317627,-0.951538,-0.075317,-1.281738,-0.244141,0.488281,0.0,11.0,-35.0
65535.0,-0.315918,-0.951538,-0.075806,-1.220703,0.305176,0.12207,0.0,11.0,-35.0
65566.0,-0.31665,-0.950562,-0.074707,-1.281738,0.061035,-0.061035,0.0,11.0,-35.0
65597.0,-0.31665,-0.950562,-0.07373,-1.098633,0.061035,0.12207,0.0,11.0,-35.0
65629.0,-0.31604,-0.950928,-0.075317,-1.037598,0.0,0.183105,0.0,10.0,-33.0
65660.0,-0.31665,-0.951904,-0.073486,-0.854492,-0.061035,0.366211,0.0,10.0,-33.0
65691.0,-0.317261,-0.951538,-0.074829,-0.793457,0.0,0.366211,0.0,10.0,-33.0
65723.0,-0.315552,-0.951904,-0.07312,-0.549316,-0.183105,0.244141,0.0,11.0,-33.0
65754.0,-0.316162,-0.950684,-0.076172,-0.610352,-0.244141,0.183105,0.0,11.0,-33.0
65785.0,-0.31543,-0.951538,-0.075195,-0.671387,-0.12207,0.244141,0.0,11.0,-33.0
65817.0,-0.315918,-0.953979,-0.073975,-0.610352,-0.183105,0.244141,1.0,11.0,-38.0
65848.0,-0.315796,-0.952881,-0.075439,-0.793457,0.0,0.0,1.0,11.0,-38.0
65879.0,-0.315918,-0.952759,-0.074585,-1.037598,0.0,-0.061035,1.0,11.0,-38.0
65911.0,-0.315796,-0.953125,-0.073853,-1.220703,0.061035,-0.12207,0.0,10.0,-29.0
65942.0,-0.31604,-0.95105,-0.072632,-1.342773,0.061035,-0.305176,0.0,10.0,-29.0
65973.0,-0.31897,-0.952881,-0.072144,-1.342773,0.12207,-0.061035,0.0,10.0,-29.0
66005.0,-0.314819,-0.950439,-0.07251,-1.464844,0.305176,-0.12207,-2.0,11.0,-34.0
66036.0,-0.317749,-0.950928,-0.071533,-1.220703,0.366211,-0.061035,-2.0,11.0,-34.0
66067.0,-0.316406,-0.950195,-0.070557,-1.159668,0.488281,0.12207,-2.0,11.0,-34.0
66099.0,-0.317261,-0.951904,-0.072021,-0.793457,0.366211,0.183105,0.0,11.0,-36.0
66130.0,-0.31665,-0.953369,-0.070312,-0.793457,0.427246,0.183105,0.0,11.0,-36.0
66160.0,-0.315918,-0.951172,-0.069824,-0.793457,0.488281,0.305176,0.0,11.0,-36.0
66192.0,-0.31665,-0.950439,-0.069824,-0.671387,0.427246,0.061035,-1.0,13.0,-30.0
66223.0,-0.315552,-0.952515,-0.069458,-0.427246,0.305176,0.061035,-1.0,13.0,-30.0
66254.0,-0.316406,-0.951538,-0.072876,-0.488281,0.244141,0.12207,-1.0,13.0,-30.0
66285.0,-0.315308,-0.952148,-0.069946,-0.549316,0.244141,0.12207,-1.0,13.0,-30.0
66317.0,-0.315552,-0.950562,-0.069824,-0.488281,0.183105,-0.061035,0.0,11.0,-35.0
66348.0,-0.315918,-0.952759,-0.070435,-0.244141,0.305176,-0.305176,0.0,11.0,-35.0
66379.0,-0.31604,-0.952026,-0.069458,-0.12207,0.366211,-0.366211,0.0,11.0,-35.0
66411.0,-0.316772,-0.950684,-0.070312,-0.12207,0.244141,-0.427246,0.0,11.0,-35.0
66442.0,-0.316406,-0.950928,-0.071289,-0.12207,0.061035,-0.305176,0.0,11.0,-35.0
66473.0,-0.318237,-0.952148,-0.072144,-0.183105,0.061035,-0.12207,0.0,11.0,-35.0
66505.0,-0.316162,-0.950562,-0.070068,-0.305176,0.366211,-0.305176,0.0,11.0,-39.0
66536.0,-0.317505,-0.949341,-0.070679,0.0,0.183105,-0.305176,0.0,11.0,-39.0
66566.0,-0.318481,-0.950073,-0.071411,0.061035,0.244141,-0.061035,0.0,11.0,-39.0
66599.0,-0.316528,-0.95166,-0.07251,0.244141,0.244141,-0.061035,0.0,11.0,-36.0
66632.0,-0.318359,-0.951782,-0.072998,0.305176,0.305176,-0.12207,0.0,11.0,-36.0
66663.0,-0.314819,-0.949341,-0.072266,0.183105,0.488281,-0.061035,0.0,11.0,-36.0
66695.0,-0.320313,-0.95105,-0.071289,0.549316,0.488281,-0.12207,1.0,10.0,-32.0
66727.0,-0.317139,-0.948975,-0.072754,0.671387,0.610352,0.12207,1.0,10.0,-32.0
66758.0,-0.318237,-0.950439,-0.073242,0.976562,0.305176,0.12207,1.0,10.0,-32.0
66790.0,-0.31665,-0.950317,-0.07251,1.159668,0.427246,0.12207,0.0,11.0,-34.0
66822.0,-0.317505,-0.950439,-0.075439,1.403808,0.183105,-0.061035,0.0,11.0,-34.0
66853.0,-0.317383,-0.950928,-0.075195,1.586914,0.12207,0.0,0.0,11.0,-34.0
66885.0,-0.317261,-0.949951,-0.077026,1.525879,-0.061035,-0.12207,1.0,9.0,-31.0
66917.0,-0.319458,-0.948608,-0.075439,1.89209,-0.12207,-0.732422,1.0,9.0,-31.0
66951.0,-0.317993,-0.955933,-0.075684,2.258301,0.732422,-1.403808,1.0,9.0,-31.0
66984.0,-0.318237,-0.954102,-0.084229,2.868652,1.831055,-2.380371,0.0,11.0,-38.0
67017.0,-0.323364,-0.942505,-0.095215,2.868652,3.479004,-1.89209,0.0,11.0,-38.0
67048.0,-0.330322,-0.943604,-0.084717,1.953125,3.967285,0.061035,0.0,11.0,-38.0
67080.0,-0.328247,-0.940186,-0.069336,1.647949,2.868652,1.403808,1.0,12.0,-33.0
67111.0,-0.329346,-0.945679,-0.07666,1.953125,0.549316,2.319336,1.0,12.0,-33.0
67143.0,-0.312012,-0.957275,-0.095215,2.868652,-1.89209,3.967285,1.0,12.0,-33.0
67176.0,-0.323242,-0.94751,-0.082642,2.929687,-0.305176,3.662109,0.0,11.0,-35.0
67207.0,-0.302002,-0.959106,-0.099487,2.13623,0.0,2.197266,0.0,11.0,-35.0
67238.0,-0.310059,-0.954834,-0.104004,0.671387,1.220703,1.281738,0.0,11.0,-35.0
67269.0,-0.32373,-0.950806,-0.097778,-0.671387,3.601074,0.732422,0.0,11.0,-35.0
67301.0,-0.317993,-0.946899,-0.09021,-1.098633,6.652832,1.525879,-1.0,12.0,-33.0
67332.0,-0.314087,-0.943848,-0.085815,-0.427246,6.408691,1.831055,-1.0,12.0,-33.0
67363.0,-0.317993,-0.948853,-0.081055,0.244141,3.967285,2.319336,-1.0,12.0,-33.0
67395.0,-0.314697,-0.942383,-0.085815,0.732422,3.173828,2.990722,0.0,10.0,-35.0
67426.0,-0.305298,-0.949829,-0.080078,2.502441,0.671387,3.601074,0.0,10.0,-35.0
67457.0,-0.304565,-0.954468,-0.088745,4.02832,-0.244141,2.990722,0.0,10.0,-35.0
67488.0,-0.306396,-0.955566,-0.093018,4.394531,0.305176,2.380371,1.0,11.0,-31.0
67518.0,-0.303101,-0.95874,-0.093018,4.333496,1.403808,1.708984,1.0,11.0,-31.0
67549.0,-0.299316,-0.95874,-0.098389,5.004883,1.403808,0.671387,1.0,11.0,-31.0
67581.0,-0.299438,-0.959106,-0.096558,4.821777,2.502441,0.610352,0.0,11.0,-35.0
67611.0,-0.312012,-0.942017,-0.106445,3.662109,2.685547,0.427246,0.0,11.0,-35.0
67642.0,-0.299927,-0.957397,-0.106812,5.187988,1.89209,0.061035,0.0,11.0,-35.0
67673.0,-0.306519,-0.952637,-0.113525,3.845215,1.89209,-0.061035,1.0,10.0,-32.0
67704.0,-0.29895,-0.949463,-0.11145,3.295898,2.258301,-1.037598,1.0,10.0,-32.0
67735.0,-0.305542,-0.950073,-0.111572,2.868652,1.342773,-1.586914,1.0,10.0,-32.0
67767.0,-0.305786,-0.945801,-0.112793,2.075195,0.0,-2.075195,0.0,11.0,-33.0
67798.0,-0.308838,-0.959229,-0.109131,1.159668,0.610352,-1.464844,0.0,11.0,-33.0
67829.0,-0.303955,-0.955933,-0.110962,0.793457,0.549316,-1.770019,0.0,11.0,-33.0
67860.0,-0.309448,-0.946411,-0.112061,0.366211,0.244141,-2.441406,0.0,11.0,-33.0
67892.0,-0.311035,-0.947266,-0.112793,0.366211,-0.366211,-2.685547,1.0,9.0,-33.0
67924.0,-0.3125,-0.948853,-0.113159,-0.244141,-0.366211,-2.319336,1.0,9.0,-33.0
67957.0,-0.317749,-0.946411,-0.109131,-0.12207,-0.549316,-2.01416,1.0,9.0,-33.0
67989.0,-0.316162,-0.940674,-0.111206,0.183105,-0.793457,-1.586914,1.0,12.0,-39.0
68020.0,-0.316772,-0.95105,-0.115723,0.915527,-1.281738,-1.342773,1.0,12.0,-39.0
68051.0,-0.320068,-0.942139,-0.11438,0.366211,-0.793457,-0.671387,1.0,12.0,-39.0
68083.0,-0.310181,-0.950195,-0.119019,-0.305176,-1.220703,-0.366211,1.0,10.0,-34.0
68115.0,-0.329102,-0.940796,-0.114624,-1.037598,-1.220703,0.12207,1.0,10.0,-34.0
68146.0,-0.318237,-0.940674,-0.113892,-0.915527,-1.098633,0.427246,1.0,10.0,-34.0
68178.0,-0.313965,-0.947754,-0.11731,-0.427246,-2.01416,0.976562,1.0,10.0,-33.0
68209.0,-0.315063,-0.948975,-0.113892,-0.732422,-0.854492,0.915527,1.0,10.0,-33.0
68240.0,-0.314575,-0.947876,-0.119873,-0.915527,-0.854492,0.366211,1.0,10.0,-33.0
68272.0,-0.316406,-0.942627,-0.11731,-1.831055,-0.427246,0.793457,1.0,10.0,-38.0
68303.0,-0.31543,-0.947266,-0.11145,-1.953125,-0.854492,1.464844,1.0,10.0,-38.0
68334.0,-0.318481,-0.94458,-0.114258,-1.586914,-0.854492,1.831055,1.0,10.0,-38.0
68366.0,-0.312378,-0.94873,-0.111206,-1.403808,-0.427246,2.258301,2.0,11.0,-35.0
68397.0,-0.31189,-0.952515,-0.113403,-1.159668,-0.244141,2.319336,2.0,11.0,-35.0
68428.0,-0.307251,-0.952271,-0.116943,-0.976562,-0.12207,1.89209,2.0,11.0,-35.0
68460.0,-0.30481,-0.950073,-0.114258,-1.770019,0.427246,1.464844,2.0,12.0,-32.0
68491.0,-0.309326,-0.950195,-0.110962,-2.380371,-0.366211,1.098633,2.0,12.0,-32.0
68522.0,-0.309937,-0.943604,-0.110352,-2.807617,-1.464844,1.464844,2.0,12.0,-32.0
68554.0,-0.305054,-0.950562,-0.107666,-2.380371,-2.258301,1.770019,1.0,12.0,-32.0
68585.0,-0.307495,-0.949219,-0.112671,-2.01416,-2.197266,1.831055,1.0,12.0,-32.0
68616.0,-0.303833,-0.949097,-0.109131,-1.953125,-1.89209,1.525879,1.0,12.0,-32.0
68648.0,-0.30127,-0.957764,-0.11145,-1.403808,-1.586914,1.220703,1.0,12.0,-38.0
68680.0,-0.302368,-0.953125,-0.112305,-2.197266,-1.098633,0.854492,1.0,12.0,-38.0
68711.0,-0.303589,-0.956177,-0.110352,-3.356933,-1.220703,0.915527,1.0,12.0,-38.0
68742.0,-0.309448,-0.948486,-0.109009,-4.333496,-0.183105,1.831055,1.0,12.0,-38.0
68774.0,-0.307129,-0.950073,-0.096069,-3.784179,-0.244141,2.807617,1.0,11.0,-35.0
68805.0,-0.310181,-0.947876,-0.098511,-2.624511,0.671387,4.394531,1.0,11.0,-35.0
68838.0,-0.306396,-0.951172,-0.092773,-1.159668,0.854492,5.92041,1.0,11.0,-35.0
68871.0,-0.292847,-0.957642,-0.092651,0.0,1.159668,7.019042,0.0,10.0,-32.0
68903.0,-0.282349,-0.960937,-0.103638,0.366211,-0.366211,5.798339,0.0,10.0,-32.0
68934.0,-0.281616,-0.974487,-0.110962,-2.441406,-0.976562,3.479004,0.0,10.0,-32.0
68966.0,-0.276367,-0.970337,-0.125854,-6.04248,0.488281,1.953125,0.0,11.0,-37.0
68998.0,-0.287598,-0.950073,-0.085693,-7.080078,2.13623,2.258301,0.0,11.0,-37.0
69031.0,-0.294922,-0.959473,-0.090088,-6.591796,2.685547,4.272461,0.0,11.0,-37.0
69063.0,-0.294189,-0.949097,-0.079712,-4.943848,3.234863,6.16455,1.0,10.0,-32.0
69096.0,-0.279785,-0.961182,-0.078003,-1.953125,2.319336,7.751464,1.0,10.0,-32.0
69127.0,-0.269043,-0.96167,-0.087524,-0.12207,1.403808,8.239746,1.0,10.0,-32.0
69159.0,-0.26001,-0.975342,-0.097656,-0.488281,-0.061035,7.019042,0.0,12.0,-35.0
69190.0,-0.263794,-0.973145,-0.097534,-3.051758,1.098633,5.249023,0.0,12.0,-35.0
69221.0,-0.255737,-0.967163,-0.089355,-4.333496,2.197266,4.089355,0.0,12.0,-35.0
69253.0,-0.259399,-0.970825,-0.082031,-4.211426,2.380371,2.990722,1.0,10.0,-37.0
69284.0,-0.265015,-0.971802,-0.077271,-4.02832,3.295898,2.990722,1.0,10.0,-37.0
69315.0,-0.261108,-0.96582,-0.079346,-4.455566,2.746582,3.601074,1.0,10.0,-37.0
69347.0,-0.25708,-0.973145,-0.071655,-4.516602,2.929687,3.662109,0.0,10.0,-34.0
69378.0,-0.258057,-0.972534,-0.077515,-4.943848,3.479004,3.601074,0.0,10.0,-34.0
69410.0,-0.24646,-0.970703,-0.073975,-5.493164,4.150391,2.807617,0.0,10.0,-34.0
69442.0,-0.250977,-0.969116,-0.063232,-5.493164,2.624511,2.13623,0.0,8.0,-35.0
69474.0,-0.256226,-0.973022,-0.065796,-5.371093,3.356933,2.502441,0.0,8.0,-35.0
69506.0,-0.247192,-0.972168,-0.057983,-5.310058,4.02832,2.624511,0.0,8.0,-35.0
69538.0,-0.254272,-0.974121,-0.057739,-5.065917,3.479004,2.380371,0.0,13.0,-33.0
69569.0,-0.245117,-0.974243,-0.055176,-5.798339,4.089355,2.13623,0.0,13.0,-33.0
69600.0,-0.245972,-0.976807,-0.051758,-6.103515,3.601074,1.770019,0.0,13.0,-33.0
69632.0,-0.249878,-0.970093,-0.049927,-6.225585,3.845215,1.770019,-2.0,10.0,-36.0
69663.0,-0.240845,-0.980713,-0.039429,-5.615234,3.723144,1.098633,-2.0,10.0,-36.0
69695.0,-0.247559,-0.975952,-0.038208,-5.432128,4.211426,0.793457,-2.0,10.0,-36.0
69726.0,-0.244385,-0.974976,-0.034546,-5.676269,4.638672,0.732422,-2.0,10.0,-36.0
69758.0,-0.244873,-0.974854,-0.036377,-5.676269,4.211426,1.159668,-4.0,11.0,-37.0
69789.0,-0.239014,-0.976196,-0.028931,-5.493164,3.417969,0.427246,-4.0,11.0,-37.0
69820.0,-0.250488,-0.975708,-0.026611,-5.676269,2.868652,0.671387,-4.0,11.0,-37.0
69852.0,-0.245483,-0.974731,-0.022461,-5.798339,3.90625,1.342773,-2.0,12.0,-31.0
69883.0,-0.242676,-0.971558,-0.019287,-5.126953,2.380371,1.403808,-2.0,12.0,-31.0
69915.0,-0.243408,-0.979004,-0.015015,-4.150391,1.159668,1.770019,-2.0,12.0,-31.0
69947.0,-0.243408,-0.974365,-0.018677,-4.150391,0.732422,1.586914,-4.0,13.0,-32.0
69978.0,-0.24231,-0.982544,-0.013306,-4.516602,1.464844,1.464844,-4.0,13.0,-32.0
70010.0,-0.242798,-0.975708,-0.013916,-4.577637,1.708984,1.708984,-4.0,13.0,-32.0
70042.0,-0.237427,-0.977417,-0.008301,-4.333496,1.525879,1.464844,0.0,12.0,-34.0
70073.0,-0.238403,-0.980103,-0.004395,-3.417969,0.793457,0.976562,0.0,12.0,-34.0
70104.0,-0.240112,-0.980957,-0.007568,-3.112793,1.89209,1.220703,0.0,12.0,-34.0
70136.0,-0.23584,-0.975708,-0.005005,-3.112793,1.831055,1.037598,-1.0,11.0,-34.0
70168.0,-0.241211,-0.978882,-0.002319,-3.173828,1.647949,0.854492,-1.0,11.0,-34.0
70199.0,-0.236206,-0.984009,0.001953,-3.051758,2.319336,1.037598,-1.0,11.0,-34.0
70231.0,-0.237061,-0.976196,0.000122,-2.868652,1.89209,1.159668,-2.0,12.0,-31.0
70263.0,-0.238892,-0.976807,0.004761,-2.990722,1.831055,0.915527,-2.0,12.0,-31.0
70295.0,-0.234985,-0.981445,0.004395,-2.929687,2.01416,1.220703,-2.0,12.0,-31.0
70327.0,-0.232788,-0.977417,0.000732,-3.112793,1.647949,0.854492,-4.0,12.0,-31.0
70358.0,-0.236816,-0.977417,0.009766,-3.051758,1.525879,0.488281,-4.0,12.0,-31.0
70389.0,-0.23645,-0.984985,0.006958,-2.990722,1.647949,0.488281,-4.0,12.0,-31.0
70421.0,-0.233521,-0.981201,0.007568,-3.356933,2.502441,0.244141,-2.0,11.0,-31.0
70452.0,-0.234009,-0.980103,0.009888,-3.295898,1.708984,0.366211,-2.0,11.0,-31.0
70483.0,-0.239136,-0.977173,0.016602,-3.601074,2.01416,0.244141,-2.0,11.0,-31.0
70515.0,-0.232178,-0.981201,0.015381,-3.723144,2.685547,0.488281,-5.0,12.0,-33.0
70546.0,-0.234863,-0.980103,0.017944,-3.417969,2.075195,0.305176,-5.0,12.0,-33.0
70577.0,-0.235229,-0.981689,0.017334,-3.112793,2.319336,0.671387,-5.0,12.0,-33.0
70608.0,-0.234253,-0.975098,0.021606,-3.479004,2.01416,0.793457,-5.0,12.0,-33.0
70640.0,-0.230469,-0.981567,0.02417,-2.563476,1.647949,0.549316,-1.0,11.0,-32.0
70671.0,-0.236938,-0.976685,0.024902,-2.258301,1.464844,0.915527,-1.0,11.0,-32.0
70702.0,-0.232056,-0.981201,0.026855,-2.075195,1.464844,0.915527,-1.0,11.0,-32.0
70736.0,-0.234009,-0.980957,0.020874,-2.13623,1.098633,0.976562,-4.0,14.0,-32.0
70767.0,-0.229614,-0.983521,0.027832,-2.380371,2.075195,0.976562,-4.0,14.0,-32.0
70798.0,-0.230835,-0.975342,0.02771,-2.197266,1.586914,0.854492,-4.0,14.0,-32.0
70830.0,-0.227783,-0.981934,0.030396,-1.831055,0.915527,0.610352,-3.0,11.0,-34.0
70861.0,-0.231689,-0.980957,0.029907,-1.770019,0.183105,0.610352,-3.0,11.0,-34.0
70892.0,-0.231567,-0.978516,0.030884,-2.075195,0.305176,0.549316,-3.0,11.0,-34.0
70924.0,-0.22876,-0.984131,0.034058,-1.770019,0.488281,1.037598,-5.0,11.0,-31.0
70958.0,-0.22937,-0.978394,0.03125,-1.770019,0.427246,0.671387,-5.0,11.0,-31.0
70989.0,-0.228027,-0.982422,0.033325,-1.831055,0.488281,0.854492,-5.0,11.0,-31.0
71021.0,-0.228638,-0.979614,0.032959,-1.586914,0.488281,0.610352,-2.0,15.0,-33.0
71053.0,-0.226196,-0.98645,0.035278,-1.403808,0.610352,0.366211,-2.0,15.0,-33.0
71084.0,-0.22998,-0.980103,0.035522,-1.708984,1.098633,0.0,-2.0,15.0,-33.0
71116.0,-0.228271,-0.980591,0.036133,-1.586914,1.342773,0.061035,-2.0,12.0,-28.0
71147.0,-0.225708,-0.980957,0.039429,-1.159668,0.12207,0.0,-2.0,12.0,-28.0
71179.0,-0.232056,-0.979858,0.035767,-1.342773,0.854492,0.061035,-2.0,12.0,-28.0
71213.0,-0.229126,-0.981445,0.041748,-0.976562,0.793457,-0.061035,-4.0,13.0,-35.0
71246.0,-0.229492,-0.980957,0.038086,-0.610352,1.098633,0.061035,-4.0,13.0,-35.0
71277.0,-0.226685,-0.980835,0.040405,-0.427246,0.732422,-0.061035,-4.0,13.0,-35.0
71309.0,-0.228271,-0.980835,0.037109,-0.488281,0.793457,-0.305176,-4.0,14.0,-35.0
71340.0,-0.228149,-0.980103,0.037231,-0.305176,0.061035,-0.244141,-4.0,14.0,-35.0
71371.0,-0.228149,-0.98291,0.037354,-0.610352,0.244141,-0.366211,-4.0,14.0,-35.0
71403.0,-0.231201,-0.978516,0.038086,-0.915527,-0.12207,-0.183105,-4.0,12.0,-33.0
71436.0,-0.229126,-0.982178,0.038574,-0.854492,0.061035,-0.12207,-4.0,12.0,-33.0
71467.0,-0.229004,-0.979614,0.040894,-0.610352,-0.244141,0.12207,-4.0,12.0,-33.0
71501.0,-0.231567,-0.981689,0.038208,-0.854492,0.0,-0.061035,-4.0,15.0,-30.0
71534.0,-0.225952,-0.980957,0.038086,-0.671387,0.305176,0.12207,-4.0,15.0,-30.0
71566.0,-0.230591,-0.980591,0.039063,-0.427246,0.488281,-0.244141,-4.0,15.0,-30.0
71598.0,-0.230957,-0.981445,0.038208,-0.671387,-0.061035,-0.488281,-4.0,13.0,-32.0
71630.0,-0.227295,-0.982666,0.04187,-0.488281,0.244141,0.183105,-4.0,13.0,-32.0
71662.0,-0.2323,-0.979614,0.039795,-0.366211,-0.305176,-0.061035,-4.0,13.0,-32.0
71694.0,-0.230591,-0.980591,0.037476,-0.366211,0.061035,0.183105,-5.0,14.0,-33.0
71725.0,-0.230103,-0.980957,0.040527,-0.183105,0.12207,0.488281,-5.0,14.0,-33.0
71756.0,-0.228394,-0.980591,0.039673,-0.061035,-0.12207,0.488281,-5.0,14.0,-33.0
71787.0,-0.228882,-0.980469,0.040283,0.061035,-0.183105,0.488281,-5.0,14.0,-33.0
71819.0,-0.229858,-0.981689,0.036621,-0.183105,-0.305176,0.305176,-2.0,15.0,-32.0
71850.0,-0.227173,-0.982178,0.037842,-0.366211,-0.061035,0.427246,-2.0,15.0,-32.0
71881.0,-0.228516,-0.982422,0.037598,-0.366211,-0.427246,0.366211,-2.0,15.0,-32.0
71913.0,-0.22937,-0.97937,0.03833,-0.549316,-0.366211,0.610352,-3.0,12.0,-33.0
71944.0,-0.228638,-0.97998,0.038818,-0.244141,-0.854492,0.732422,-3.0,12.0,-33.0
71975.0,-0.22937,-0.982178,0.043579,-0.061035,-0.427246,0.549316,-3.0,12.0,-33.0
72007.0,-0.228271,-0.979858,0.037231,0.183105,-0.549316,0.671387,-5.0,13.0,-27.0
72038.0,-0.228027,-0.981567,0.040771,0.610352,-0.305176,1.037598,-5.0,13.0,-27.0
72069.0,-0.226318,-0.979858,0.037598,0.793457,-0.183105,0.976562,-5.0,13.0,-27.0
72101.0,-0.227539,-0.980713,0.035889,0.976562,-0.244141,0.793457,-8.0,11.0,-31.0
72132.0,-0.224976,-0.984375,0.033203,1.098633,0.183105,0.915527,-8.0,11.0,-31.0
72163.0,-0.22522,-0.982666,0.036621,1.098633,0.183105,0.732422,-8.0,11.0,-31.0
72195.0,-0.225342,-0.983154,0.032349,0.854492,0.244141,0.305176,-5.0,14.0,-33.0
72226.0,-0.224609,-0.983154,0.030396,0.549316,0.12207,0.427246,-5.0,14.0,-33.0
72256.0,-0.225708,-0.981079,0.033569,0.305176,0.244141,0.305176,-5.0,14.0,-33.0
72288.0,-0.223633,-0.982056,0.029175,0.427246,-0.12207,0.061035,-4.0,11.0,-39.0
72319.0,-0.222168,-0.983276,0.03064,0.061035,0.427246,0.0,-4.0,11.0,-39.0
72350.0,-0.225586,-0.98291,0.032593,-0.183105,0.183105,-0.305176,-4.0,11.0,-39.0
72382.0,-0.224243,-0.984131,0.02832,-0.488281,0.305176,-0.244141,-1.0,13.0,-33.0
72413.0,-0.227905,-0.977173,0.03479,-0.305176,0.183105,0.0,-1.0,13.0,-33.0
72444.0,-0.22522,-0.987061,0.030273,-0.366211,-0.12207,-0.366211,-1.0,13.0,-33.0
72475.0,-0.227173,-0.980713,0.030151,-0.061035,0.610352,0.12207,-1.0,13.0,-33.0
72507.0,-0.228394,-0.979126,0.033569,-0.305176,-0.183105,-0.12207,-3.0,12.0,-31.0
72538.0,-0.226318,-0.980957,0.027588,-0.244141,0.0,0.0,-3.0,12.0,-31.0
72569.0,-0.227783,-0.981567,0.033813,-0.12207,0.12207,0.183105,-3.0,12.0,-31.0
72601.0,-0.225708,-0.980957,0.030884,-0.244141,0.061035,0.12207,-6.0,12.0,-29.0
72632.0,-0.225952,-0.984009,0.029907,-0.244141,0.427246,0.183105,-6.0,12.0,-29.0
72663.0,-0.225464,-0.980957,0.030884,-0.366211,-0.183105,0.061035,-6.0,12.0,-29.0
72695.0,-0.224609,-0.982178,0.032837,-0.183105,-0.12207,0.12207,-5.0,13.0,-30.0
72726.0,-0.227295,-0.981201,0.031006,-0.366211,-0.12207,0.244141,-5.0,13.0,-30.0
72757.0,-0.224854,-0.980225,0.03125,-0.366211,0.12207,0.12207,-5.0,13.0,-30.0
72789.0,-0.226929,-0.9823,0.028931,-0.183105,-0.183105,0.12207,-5.0,14.0,-29.0
72820.0,-0.226562,-0.981812,0.030151,-0.427246,0.305176,0.244141,-5.0,14.0,-29.0
72851.0,-0.224609,-0.983032,0.030029,-0.488281,0.366211,0.244141,-5.0,14.0,-29.0
72883.0,-0.224731,-0.982788,0.031494,-0.366211,0.366211,0.366211,-3.0,12.0,-33.0
72914.0,-0.224487,-0.981689,0.030518,-0.671387,0.305176,0.12207,-3.0,12.0,-33.0
72945.0,-0.224243,-0.983521,0.030762,-0.549316,0.244141,0.305176,-3.0,12.0,-33.0
72977.0,-0.226807,-0.981079,0.031738,-0.854492,0.427246,0.244141,-6.0,13.0,-35.0
73008.0,-0.224121,-0.9823,0.031494,-0.610352,0.183105,0.061035,-6.0,13.0,-35.0
73038.0,-0.223877,-0.984253,0.031616,-0.427246,0.549316,-0.061035,-6.0,13.0,-35.0
73070.0,-0.226318,-0.981689,0.032227,-0.488281,0.305176,-0.305176,-4.0,12.0,-38.0
73102.0,-0.225586,-0.983398,0.030884,-0.549316,0.061035,-0.244141,-4.0,12.0,-38.0
73133.0,-0.225098,-0.983032,0.03064,-0.610352,0.305176,-0.12207,-4.0,12.0,-38.0
73164.0,-0.225464,-0.982056,0.03125,-0.549316,-0.061035,-0.305176,-4.0,12.0,-38.0
73196.0,-0.225708,-0.981812,0.031982,-0.610352,0.12207,-0.244141,-4.0,14.0,-35.0
73227.0,-0.226196,-0.982666,0.029907,-0.610352,0.12207,-0.305176,-4.0,14.0,-35.0
73258.0,-0.227661,-0.981323,0.029541,-0.915527,0.305176,-0.427246,-4.0,14.0,-35.0
73290.0,-0.227051,-0.981323,0.035034,-1.037598,0.793457,-0.061035,-3.0,13.0,-31.0
73321.0,-0.226318,-0.979858,0.03064,-0.854492,0.0,-0.183105,-3.0,13.0,-31.0
73352.0,-0.226318,-0.9823,0.032349,-0.793457,0.0,-0.427246,-3.0,13.0,-31.0
73384.0,-0.228271,-0.982178,0.031372,-0.854492,0.183105,-0.305176,-2.0,13.0,-29.0
73415.0,-0.226074,-0.980591,0.033569,-0.854492,0.366211,0.061035,-2.0,13.0,-29.0
73446.0,-0.225708,-0.980347,0.032471,-0.976562,0.183105,-0.183105,-2.0,13.0,-29.0
73478.0,-0.228882,-0.981201,0.034302,-0.793457,-0.244141,-0.12207,-2.0,14.0,-25.0
73509.0,-0.228149,-0.981689,0.035889,-0.732422,-0.12207,0.0,-2.0,14.0,-25.0
73540.0,-0.227417,-0.982056,0.031982,-0.671387,0.0,-0.12207,-2.0,14.0,-25.0
73573.0,-0.227051,-0.9823,0.03479,-0.427246,0.183105,0.12207,-3.0,13.0,-33.0
73604.0,-0.228638,-0.980713,0.031738,-0.488281,0.12207,0.0,-3.0,13.0,-33.0
73635.0,-0.226562,-0.983276,0.034424,-0.488281,0.183105,0.061035,-3.0,13.0,-33.0
73667.0,-0.229736,-0.980957,0.033203,-0.366211,-0.12207,0.061035,-6.0,13.0,-34.0
73698.0,-0.229248,-0.981812,0.032349,-0.488281,0.427246,0.12207,-6.0,13.0,-34.0
73728.0,-0.225464,-0.980469,0.032715,-0.671387,0.244141,0.12207,-6.0,13.0,-34.0
73760.0,-0.228394,-0.981812,0.034302,-0.793457,-0.061035,-0.061035,-4.0,12.0,-31.0
73791.0,-0.226807,-0.981201,0.033691,-0.610352,-0.183105,-0.061035,-4.0,12.0,-31.0
73822.0,-0.227783,-0.982056,0.032715,-0.488281,0.488281,0.12207,-4.0,12.0,-31.0
73853.0,-0.227661,-0.981323,0.03418,-0.427246,0.549316,0.0,-4.0,12.0,-31.0
73885.0,-0.229248,-0.979492,0.034302,-0.427246,0.183105,-0.061035,-5.0,13.0,-32.0
73916.0,-0.226807,-0.9823,0.034912,-0.183105,0.061035,0.12207,-5.0,13.0,-32.0
73947.0,-0.22937,-0.981323,0.033569,0.0,-0.244141,0.183105,-5.0,13.0,-32.0
73979.0,-0.227905,-0.981079,0.033081,-0.061035,0.244141,0.305176,-5.0,13.0,-35.0
74010.0,-0.227295,-0.982544,0.033447,-0.12207,-0.427246,0.244141,-5.0,13.0,-35.0
74041.0,-0.22522,-0.981934,0.033081,0.061035,0.12207,0.061035,-5.0,13.0,-35.0
74073.0,-0.228882,-0.977783,0.030518,-0.12207,-0.183105,-0.366211,-2.0,14.0,-35.0
74104.0,-0.225342,-0.9823,0.033447,0.183105,-0.610352,-0.305176,-2.0,14.0,-35.0
74135.0,-0.22644,-0.978516,0.028076,0.427246,-1.281738,-0.488281,-2.0,14.0,-35.0
74167.0,-0.22229,-0.978882,0.029663,0.427246,-1.647949,-1.098633,-2.0,14.0,-35.0
74198.0,-0.223877,-0.984131,0.030029,1.403808,-3.112793,-2.319336,-2.0,14.0,-35.0
74229.0,-0.231445,-0.985718,0.029175,0.793457,-1.89209,-2.685547,-2.0,14.0,-35.0
74261.0,-0.233765,-0.98584,0.028076,0.183105,0.061035,-2.624511,-4.0,14.0,-30.0
74292.0,-0.231079,-0.975708,0.025513,0.12207,-0.244141,-2.502441,-4.0,14.0,-30.0
74323.0,-0.235229,-0.980713,0.028809,-0.183105,-0.488281,-2.929687,-4.0,14.0,-30.0
74355.0,-0.240967,-0.979126,0.025635,0.12207,-0.671387,-2.441406,-2.0,12.0,-31.0
74386.0,-0.235107,-0.971802,0.029053,-0.427246,-1.220703,-2.441406,-2.0,12.0,-31.0
74417.0,-0.244385,-0.977661,0.022827,0.061035,-3.051758,-1.953125,-2.0,12.0,-31.0
74449.0,-0.236816,-0.971924,0.025391,0.305176,-3.112793,-1.770019,-4.0,12.0,-32.0
74480.0,-0.242554,-0.969727,0.029541,1.342773,-5.676269,-1.403808,-4.0,12.0,-32.0
74511.0,-0.241211,-0.975586,0.032104,2.197266,-7.8125,-1.342773,-4.0,12.0,-32.0
74543.0,-0.234009,-0.969727,0.005493,4.882812,-9.399414,-2.990722,-4.0,11.0,-31.0
74574.0,-0.254028,-0.984863,0.046509,7.202148,-9.033203,-3.234863,-4.0,11.0,-31.0
74605.0,-0.268799,-0.977905,0.015503,7.080078,-4.760742,-0.244141,-4.0,11.0,-31.0
74636.0,-0.237549,-0.970825,0.015869,8.483887,0.061035,0.305176,-4.0,11.0,-31.0
74668.0,-0.240967,-0.97229,0.009888,11.535644,-4.516602,0.366211,-4.0,11.0,-31.0
74699.0,-0.252686,-0.976196,-0.008911,12.268065,-3.784179,0.915527,-4.0,11.0,-31.0
74730.0,-0.245239,-0.973633,-0.006226,12.451171,-3.173828,1.525879,-4.0,11.0,-31.0
74762.0,-0.243408,-0.975586,-0.016357,13.793944,-4.394531,1.525879,0.0,11.0,-32.0
74793.0,-0.235962,-0.97998,-0.033081,14.404296,-4.516602,1.525879,0.0,11.0,-32.0
74824.0,-0.240356,-0.978149,-0.044678,14.526366,-4.272461,0.793457,0.0,11.0,-32.0
74856.0,-0.241699,-0.981079,-0.046997,14.709472,-3.234863,0.0,-1.0,11.0,-32.0
74887.0,-0.242798,-0.978271,-0.063477,13.732909,-2.380371,-0.732422,-1.0,11.0,-32.0
74918.0,-0.238037,-0.977173,-0.063354,13.366698,-2.01416,-1.281738,-1.0,11.0,-32.0
74950.0,-0.249756,-0.976196,-0.067993,13.610839,-1.342773,-1.525879,-1.0,11.0,-31.0
74981.0,-0.24292,-0.971436,-0.078491,13.610839,-1.586914,-1.159668,-1.0,11.0,-31.0
75012.0,-0.248169,-0.971191,-0.084229,14.465331,-1.281738,-0.976562,-1.0,11.0,-31.0
75044.0,-0.24646,-0.974365,-0.098877,14.770507,-1.770019,-1.281738,2.0,11.0,-35.0
75075.0,-0.247314,-0.969482,-0.106934,13.549804,-0.976562,-0.915527,2.0,11.0,-35.0
75107.0,-0.245117,-0.973389,-0.112549,12.08496,-1.525879,-0.671387,2.0,11.0,-35.0
75139.0,-0.245483,-0.966919,-0.119019,10.559081,-1.159668,-0.854492,0.0,10.0,-36.0
75170.0,-0.24231,-0.970947,-0.122559,9.765625,-1.525879,-1.342773,0.0,10.0,-36.0
75201.0,-0.249634,-0.96521,-0.123047,9.643555,-1.831055,-1.220703,0.0,10.0,-36.0
75233.0,-0.247437,-0.968384,-0.134155,9.033203,-1.831055,-0.915527,1.0,12.0,-39.0
75264.0,-0.252808,-0.962769,-0.136841,6.530761,-0.793457,-0.061035,1.0,12.0,-39.0
75295.0,-0.246582,-0.966064,-0.14209,8.239746,-1.647949,-0.915527,1.0,12.0,-39.0
75326.0,-0.248535,-0.963013,-0.143311,7.141113,-0.793457,-0.915527,1.0,12.0,-39.0
75358.0,-0.251587,-0.96582,-0.146973,6.713867,-0.610352,-0.976562,1.0,14.0,-33.0
75389.0,-0.249878,-0.964844,-0.150024,5.676269,-0.244141,-0.488281,1.0,14.0,-33.0
75420.0,-0.250977,-0.959961,-0.156738,5.004883,-0.549316,0.0,1.0,14.0,-33.0
75452.0,-0.247925,-0.960937,-0.158936,4.02832,-0.610352,-0.061035,3.0,10.0,-35.0
75483.0,-0.252319,-0.963257,-0.159058,3.601074,-0.915527,-0.244141,3.0,10.0,-35.0
75514.0,-0.24585,-0.959351,-0.162231,3.173828,-0.671387,0.061035,3.0,10.0,-35.0
75546.0,-0.251465,-0.963623,-0.160645,2.990722,-0.732422,0.12207,2.0,12.0,-38.0
75577.0,-0.249146,-0.960449,-0.165283,2.807617,-0.915527,0.0,2.0,12.0,-38.0
75607.0,-0.247925,-0.959717,-0.165161,2.746582,-0.854492,-0.183105,2.0,12.0,-38.0
75639.0,-0.248413,-0.959473,-0.169556,2.502441,-1.586914,-0.244141,2.0,9.0,-36.0
75670.0,-0.24585,-0.958496,-0.169922,2.075195,-1.647949,-0.244141,2.0,9.0,-36.0
75701.0,-0.251343,-0.959351,-0.168823,1.770019,-1.953125,-0.427246,2.0,9.0,-36.0
75733.0,-0.249146,-0.958618,-0.174438,1.89209,-2.563476,-0.244141,4.0,12.0,-33.0
75764.0,-0.23877,-0.965088,-0.171753,0.549316,-2.258301,0.427246,4.0,12.0,-33.0
75795.0,-0.25708,-0.954346,-0.175293,2.01416,-3.112793,-0.305176,4.0,12.0,-33.0
75827.0,-0.246826,-0.960693,-0.177246,1.342773,-2.746582,-0.549316,2.0,14.0,-37.0
75858.0,-0.247314,-0.956299,-0.178223,1.159668,-2.746582,-1.098633,2.0,14.0,-37.0
75889.0,-0.251587,-0.959595,-0.179565,0.732422,-2.990722,-1.159668,2.0,14.0,-37.0
75921.0,-0.24939,-0.954834,-0.177124,0.305176,-1.586914,-0.732422,4.0,10.0,-38.0
75952.0,-0.250122,-0.958618,-0.179565,0.610352,-1.89209,-0.610352,4.0,10.0,-38.0
75982.0,-0.249878,-0.955688,-0.182739,0.610352,-1.647949,-0.244141,4.0,10.0,-38.0
76013.0,-0.250977,-0.961182,-0.179932,0.244141,-1.586914,-0.488281,4.0,10.0,-38.0
76045.0,-0.250366,-0.957153,-0.182861,-0.610352,-0.732422,-0.610352,3.0,10.0,-37.0
76076.0,-0.249268,-0.956665,-0.178833,-0.366211,-1.159668,-0.732422,3.0,10.0,-37.0
76107.0,-0.250977,-0.955933,-0.18103,-0.244141,-1.281738,-0.915527,3.0,10.0,-37.0
76139.0,-0.250977,-0.958008,-0.18396,-0.488281,-0.427246,-1.037598,4.0,8.0,-34.0
76170.0,-0.249146,-0.961548,-0.184326,-1.098633,-0.549316,-1.159668,4.0,8.0,-34.0
76201.0,-0.251953,-0.953857,-0.17981,-1.708984,-0.610352,-1.159668,4.0,8.0,-34.0
76233.0,-0.250977,-0.960449,-0.178711,-1.770019,-1.220703,-1.220703,3.0,10.0,-39.0
76264.0,-0.25708,-0.95752,-0.180542,-2.01416,-0.427246,-1.586914,3.0,10.0,-39.0
76295.0,-0.253174,-0.9552,-0.179199,-2.01416,-0.915527,-1.525879,3.0,10.0,-39.0
76327.0,-0.253662,-0.95752,-0.178467,-2.13623,-0.915527,-1.281738,2.0,11.0,-34.0
76358.0,-0.255493,-0.954834,-0.178711,-2.01416,-0.183105,-1.098633,2.0,11.0,-34.0
76389.0,-0.261719,-0.95813,-0.177856,-1.708984,0.366211,-0.854492,2.0,11.0,-34.0
76421.0,-0.256348,-0.956665,-0.179443,-2.075195,0.732422,-0.854492,2.0,10.0,-37.0
76452.0,-0.25647,-0.958618,-0.177612,-2.624511,1.159668,-0.976562,2.0,10.0,-37.0
76483.0,-0.260742,-0.957031,-0.174072,-3.234863,1.464844,-0.854492,2.0,10.0,-37.0
76514.0,-0.259644,-0.955933,-0.173706,-3.540039,1.586914,-0.793457,2.0,9.0,-36.0
76545.0,-0.262817,-0.957153,-0.168579,-4.02832,2.01416,-0.488281,2.0,9.0,-36.0
76576.0,-0.261719,-0.955444,-0.167969,-4.089355,2.502441,-0.244141,2.0,9.0,-36.0
76608.0,-0.258423,-0.9552,-0.163696,-3.540039,2.075195,-0.244141,1.0,10.0,-38.0
76639.0,-0.258057,-0.95752,-0.163696,-2.929687,1.831055,-0.244141,1.0,10.0,-38.0
76670.0,-0.26123,-0.960937,-0.161743,-2.807617,1.708984,-0.610352,1.0,10.0,-38.0
76701.0,-0.259155,-0.956421,-0.160156,-2.624511,1.220703,-0.915527,1.0,10.0,-38.0
76733.0,-0.260254,-0.960205,-0.160767,-2.01416,0.915527,-0.915527,2.0,11.0,-36.0
76764.0,-0.264771,-0.955322,-0.158203,-2.01416,0.183105,-0.915527,2.0,11.0,-36.0
76795.0,-0.263672,-0.954468,-0.156372,-1.586914,0.061035,-0.427246,2.0,11.0,-36.0
76827.0,-0.262573,-0.959229,-0.153198,-0.732422,0.12207,-0.244141,2.0,11.0,-39.0
76858.0,-0.263916,-0.954346,-0.157471,-0.305176,0.061035,-0.549316,2.0,11.0,-39.0
76889.0,-0.263306,-0.95813,-0.158081,0.061035,-0.366211,-0.488281,2.0,11.0,-39.0
76920.0,-0.263916,-0.957397,-0.158813,0.12207,-0.549316,-0.305176,4.0,11.0,-37.0
76951.0,-0.263306,-0.958496,-0.159668,-0.12207,-0.915527,-0.427246,4.0,11.0,-37.0
76982.0,-0.261597,-0.957153,-0.159668,-0.488281,-0.915527,-0.549316,4.0,11.0,-37.0
77014.0,-0.266846,-0.956543,-0.161377,-0.671387,-0.671387,-0.488281,2.0,10.0,-34.0
77045.0,-0.26416,-0.953491,-0.158447,-0.366211,-0.671387,0.061035,2.0,10.0,-34.0
77076.0,-0.265381,-0.955688,-0.163086,-0.244141,-0.610352,0.366211,2.0,10.0,-34.0
77108.0,-0.263062,-0.958862,-0.161865,-0.488281,-0.244141,0.549316,2.0,10.0,-34.0
77139.0,-0.262695,-0.956909,-0.162842,-1.037598,-0.061035,0.610352,2.0,10.0,-34.0
77170.0,-0.263428,-0.958496,-0.161865,-1.403808,0.305176,0.427246,2.0,10.0,-34.0
77202.0,-0.264771,-0.958496,-0.162109,-2.258301,0.366211,0.427246,4.0,11.0,-41.0
77233.0,-0.261841,-0.958862,-0.159912,-2.746582,0.793457,0.427246,4.0,11.0,-41.0
77264.0,-0.262573,-0.957886,-0.157959,-2.990722,0.793457,0.366211,4.0,11.0,-41.0
77296.0,-0.263306,-0.958374,-0.153687,-2.868652,1.159668,0.427246,1.0,10.0,-38.0
77327.0,-0.260498,-0.958618,-0.155518,-2.746582,1.220703,0.244141,1.0,10.0,-38.0
77358.0,-0.264893,-0.960571,-0.151855,-2.807617,1.159668,0.0,1.0,10.0,-38.0
77389.0,-0.26123,-0.957031,-0.148071,-3.234863,1.220703,-0.12207,1.0,10.0,-38.0
77421.0,-0.262695,-0.957642,-0.146973,-2.990722,1.159668,-0.305176,2.0,10.0,-35.0
77452.0,-0.263672,-0.960693,-0.147949,-3.051758,0.854492,-0.244141,2.0,10.0,-35.0
77483.0,-0.263916,-0.959106,-0.144165,-3.234863,0.854492,-0.183105,2.0,10.0,-35.0
77515.0,-0.26416,-0.958374,-0.145508,-3.356933,0.976562,0.061035,1.0,9.0,-33.0
77546.0,-0.263062,-0.958984,-0.143311,-3.295898,0.610352,-0.061035,1.0,9.0,-33.0
77577.0,-0.263062,-0.959961,-0.139893,-3.173828,0.793457,-0.12207,1.0,9.0,-33.0
77609.0,-0.26123,-0.956421,-0.140137,-3.662109,0.671387,-0.366211,2.0,10.0,-33.0
77640.0,-0.264038,-0.958862,-0.137207,-3.112793,0.12207,-0.427246,2.0,10.0,-33.0
77671.0,-0.263306,-0.960693,-0.135132,-2.868652,0.305176,-0.366211,2.0,10.0,-33.0
77703.0,-0.264404,-0.961182,-0.132446,-2.563476,0.183105,-0.610352,4.0,7.0,-37.0
77734.0,-0.265747,-0.959595,-0.134277,-2.380371,-0.12207,-0.732422,4.0,7.0,-37.0
77765.0,-0.266113,-0.959717,-0.130981,-2.13623,-0.305176,-0.671387,4.0,7.0,-37.0
77797.0,-0.265747,-0.961914,-0.130371,-1.708984,0.0,-0.610352,1.0,10.0,-34.0
77828.0,-0.2677,-0.959229,-0.131958,-1.647949,0.0,-0.610352,1.0,10.0,-34.0
77859.0,-0.267822,-0.95874,-0.128174,-1.220703,0.061035,-0.488281,1.0,10.0,-34.0
77891.0,-0.269043,-0.962036,-0.131836,-0.671387,0.549316,0.0,0.0,11.0,-34.0
77922.0,-0.263916,-0.95874,-0.131226,-0.183105,0.366211,-0.244141,0.0,11.0,-34.0
77953.0,-0.268066,-0.961792,-0.128784,0.0,0.488281,-0.488281,0.0,11.0,-34.0
77985.0,-0.268066,-0.959473,-0.133911,-0.427246,0.732422,-0.244141,2.0,11.0,-33.0
78016.0,-0.2677,-0.960815,-0.131592,-0.549316,0.183105,-0.244141,2.0,11.0,-33.0
78047.0,-0.270752,-0.960083,-0.130859,-0.915527,0.244141,0.12207,2.0,11.0,-33.0
78079.0,-0.269897,-0.959961,-0.128906,-0.854492,0.427246,0.183105,0.0,10.0,-33.0
78110.0,-0.26709,-0.957275,-0.131104,-0.671387,0.427246,0.305176,0.0,10.0,-33.0
78141.0,-0.268677,-0.960327,-0.129761,-0.549316,0.488281,0.549316,0.0,10.0,-33.0
78172.0,-0.265625,-0.96106,-0.12915,-0.549316,0.549316,0.549316,0.0,10.0,-33.0
78204.0,-0.266968,-0.960083,-0.129272,-0.549316,0.610352,0.366211,1.0,11.0,-37.0
78235.0,-0.265381,-0.962158,-0.130127,-0.427246,0.671387,0.305176,1.0,11.0,-37.0
78266.0,-0.265381,-0.960327,-0.132446,-0.671387,0.488281,0.183105,1.0,11.0,-37.0
78298.0,-0.267212,-0.959717,-0.129883,-0.854492,0.183105,0.061035,0.0,10.0,-34.0
78329.0,-0.268311,-0.961304,-0.131592,-1.159668,0.305176,0.183105,0.0,10.0,-34.0
78361.0,-0.267578,-0.962036,-0.128662,-1.342773,0.305176,0.12207,0.0,10.0,-34.0
78393.0,-0.267334,-0.958618,-0.129272,-1.403808,0.061035,0.12207,1.0,11.0,-31.0
78424.0,-0.2677,-0.959595,-0.12793,-1.098633,0.12207,0.610352,1.0,11.0,-31.0
78455.0,-0.266113,-0.960693,-0.127686,-0.976562,0.0,0.671387,1.0,11.0,-31.0
78487.0,-0.265259,-0.96106,-0.127197,-0.793457,0.12207,0.671387,2.0,11.0,-34.0
78518.0,-0.266602,-0.961548,-0.126465,-0.610352,0.0,0.488281,2.0,11.0,-34.0
78549.0,-0.266968,-0.963989,-0.128052,-0.854492,0.183105,0.244141,2.0,11.0,-34.0
78581.0,-0.265503,-0.961914,-0.127075,-0.488281,0.305176,0.366211,0.0,11.0,-36.0
78612.0,-0.265503,-0.96106,-0.127808,-0.671387,0.183105,0.183105,0.0,11.0,-36.0
78643.0,-0.264771,-0.960083,-0.126343,-0.671387,0.244141,0.183105,0.0,11.0,-36.0
78675.0,-0.265015,-0.961548,-0.127808,-0.427246,0.244141,0.244141,2.0,11.0,-34.0
78706.0,-0.265503,-0.960693,-0.127075,-0.427246,0.12207,0.183105,2.0,11.0,-34.0
78737.0,-0.264893,-0.961548,-0.125244,0.0,0.0,0.427246,2.0,11.0,-34.0
78768.0,-0.265137,-0.961792,-0.126099,0.244141,0.0,0.244141,0.0,9.0,-41.0
78799.0,-0.260132,-0.962524,-0.127441,0.915527,-0.12207,-0.183105,0.0,9.0,-41.0
78830.0,-0.26416,-0.962036,-0.130615,1.098633,-0.244141,-0.610352,0.0,9.0,-41.0
78861.0,-0.266113,-0.962524,-0.129028,0.671387,-0.244141,-0.732422,0.0,9.0,-41.0
78893.0,-0.268677,-0.961426,-0.127808,0.427246,-0.12207,-0.671387,0.0,10.0,-33.0
78924.0,-0.266968,-0.959106,-0.133301,0.12207,-0.12207,-0.305176,0.0,10.0,-33.0
78955.0,-0.2677,-0.960571,-0.131592,-0.183105,-0.12207,0.061035,0.0,10.0,-33.0
78987.0,-0.265137,-0.960937,-0.133301,-0.610352,0.12207,0.366211,1.0,12.0,-33.0
79018.0,-0.264526,-0.96106,-0.134644,-0.915527,0.427246,0.244141,1.0,12.0,-33.0
79049.0,-0.264282,-0.960815,-0.133667,-1.220703,0.854492,0.12207,1.0,12.0,-33.0
79081.0,-0.265381,-0.962158,-0.131836,-1.708984,0.976562,0.0,1.0,11.0,-35.0
79112.0,-0.267578,-0.959839,-0.129517,-2.13623,1.159668,0.12207,1.0,11.0,-35.0
79143.0,-0.265869,-0.961426,-0.126587,-2.380371,1.281738,0.183105,1.0,11.0,-35.0
79175.0,-0.264771,-0.959106,-0.128784,-2.319336,1.098633,0.488281,0.0,10.0,-38.0
79206.0,-0.267334,-0.961182,-0.124634,-2.258301,0.915527,0.793457,0.0,10.0,-38.0
79237.0,-0.267456,-0.958618,-0.121948,-1.831055,0.732422,1.281738,0.0,10.0,-38.0
79269.0,-0.267578,-0.967163,-0.122314,-1.89209,0.732422,1.403808,3.0,9.0,-35.0
79300.0,-0.260132,-0.962769,-0.12561,-1.281738,0.244141,1.037598,3.0,9.0,-35.0
79331.0,-0.261963,-0.965332,-0.122681,-1.525879,-0.183105,0.183105,3.0,9.0,-35.0
79363.0,-0.260986,-0.963257,-0.123047,-1.525879,-0.488281,-0.183105,0.0,10.0,-37.0
79394.0,-0.264771,-0.963013,-0.121216,-1.647949,-0.427246,-0.488281,0.0,10.0,-37.0
79425.0,-0.264282,-0.960083,-0.120117,-1.708984,-0.488281,-0.366211,0.0,10.0,-37.0
79457.0,-0.267212,-0.962891,-0.121826,-1.342773,-0.488281,-0.061035,2.0,10.0,-39.0
79488.0,-0.265503,-0.963623,-0.119873,-1.342773,-0.183105,0.061035,2.0,10.0,-39.0
79519.0,-0.266724,-0.962036,-0.118164,-1.220703,-0.305176,0.549316,2.0,10.0,-39.0
79550.0,-0.264038,-0.961792,-0.121338,-0.976562,-0.061035,0.915527,2.0,10.0,-39.0
79582.0,-0.263062,-0.962891,-0.121094,-0.854492,-0.305176,1.159668,0.0,14.0,-30.0
79613.0,-0.263062,-0.963623,-0.121338,-0.976562,-0.549316,1.403808,0.0,14.0,-30.0
79644.0,-0.263428,-0.964233,-0.122437,-1.464844,-0.610352,1.464844,0.0,14.0,-30.0
79676.0,-0.26123,-0.963379,-0.119385,-2.075195,-0.549316,1.647949,1.0,10.0,-35.0
79707.0,-0.258423,-0.966431,-0.119873,-2.075195,-0.183105,1.708984,1.0,10.0,-35.0
79738.0,-0.25769,-0.964966,-0.115845,-1.89209,0.244141,1.403808,1.0,10.0,-35.0
79769.0,-0.257202,-0.96582,-0.118286,-1.708984,0.244141,1.159668,1.0,10.0,-37.0
79800.0,-0.259766,-0.964355,-0.118164,-2.197266,0.671387,1.037598,1.0,10.0,-37.0
79831.0,-0.260132,-0.966187,-0.114136,-2.441406,1.098633,1.342773,1.0,10.0,-37.0
79863.0,-0.259521,-0.967163,-0.113525,-2.746582,1.159668,1.953125,1.0,11.0,-38.0
79894.0,-0.255249,-0.964722,-0.112427,-3.356933,1.464844,1.953125,1.0,11.0,-38.0
79925.0,-0.256226,-0.963867,-0.111084,-2.929687,1.281738,2.075195,1.0,11.0,-38.0
79957.0,-0.251343,-0.967651,-0.110352,-2.990722,1.342773,2.075195,0.0,10.0,-30.0
79988.0,-0.255005,-0.965942,-0.109619,-3.173828,1.525879,1.953125,0.0,10.0,-30.0
80019.0,-0.249023,-0.966309,-0.107178,-2.807617,1.403808,1.953125,0.0,10.0,-30.0
80051.0,-0.249634,-0.969238,-0.105225,-2.746582,1.159668,1.953125,1.0,12.0,-39.0
80082.0,-0.247559,-0.969727,-0.10498,-2.685547,1.342773,1.403808,1.0,12.0,-39.0
80113.0,-0.249878,-0.970093,-0.102661,-2.746582,1.098633,0.976562,1.0,12.0,-39.0
80145.0,-0.248657,-0.969971,-0.102173,-3.112793,1.403808,0.915527,-2.0,11.0,-34.0
80176.0,-0.248047,-0.969727,-0.097534,-2.746582,1.037598,0.854492,-2.0,11.0,-34.0
80207.0,-0.247681,-0.966309,-0.100708,-2.258301,0.610352,0.854492,-2.0,11.0,-34.0
80237.0,-0.25,-0.969238,-0.096191,-2.01416,0.366211,0.976562,-2.0,11.0,-34.0
80269.0,-0.246826,-0.970459,-0.097168,-1.89209,0.549316,0.793457,0.0,10.0,-30.0
80300.0,-0.247925,-0.971191,-0.095703,-1.831055,0.488281,0.793457,0.0,10.0,-30.0
80331.0,-0.247925,-0.970581,-0.096313,-1.708984,0.488281,0.610352,0.0,10.0,-30.0
80363.0,-0.24646,-0.972412,-0.092896,-1.586914,0.549316,0.671387,-1.0,11.0,-32.0
80394.0,-0.247437,-0.969482,-0.097168,-1.647949,0.854492,0.610352,-1.0,11.0,-32.0
80425.0,-0.244263,-0.971313,-0.090942,-1.281738,0.793457,0.427246,-1.0,11.0,-32.0
80457.0,-0.247437,-0.972046,-0.093018,-0.976562,1.281738,0.793457,0.0,11.0,-36.0
80488.0,-0.245972,-0.971069,-0.093506,-1.159668,1.159668,0.671387,0.0,11.0,-36.0
80519.0,-0.246582,-0.96875,-0.092041,-1.586914,0.732422,0.549316,0.0,11.0,-36.0
80551.0,-0.244995,-0.971924,-0.091309,-1.403808,0.732422,0.793457,0.0,11.0,-31.0
80582.0,-0.244995,-0.970947,-0.091064,-1.220703,0.671387,0.793457,0.0,11.0,-31.0
80613.0,-0.24707,-0.972412,-0.087891,-1.281738,0.793457,0.732422,0.0,11.0,-31.0
80644.0,-0.240845,-0.96814,-0.091309,-0.976562,0.854492,0.915527,0.0,10.0,-33.0
80675.0,-0.242554,-0.972656,-0.088745,-0.427246,0.427246,0.793457,0.0,10.0,-33.0
80706.0,-0.243286,-0.97229,-0.089966,-0.732422,0.732422,0.427246,0.0,10.0,-33.0
80738.0,-0.232056,-0.966309,-0.087402,-0.305176,-0.12207,-0.549316,-1.0,12.0,-34.0
80769.0,-0.23877,-0.973145,-0.092163,0.915527,-0.793457,-1.403808,-1.0,12.0,-34.0
80800.0,-0.247803,-0.983643,-0.089844,0.793457,-0.488281,-2.13623,-1.0,12.0,-34.0
80832.0,-0.261475,-0.975952,-0.083374,-1.037598,-0.305176,-2.197266,0.0,13.0,-35.0
80864.0,-0.258301,-0.965088,-0.079346,-0.610352,-0.244141,0.671387,0.0,13.0,-35.0
80895.0,-0.270874,-0.960937,-0.076538,0.366211,0.610352,3.601074,0.0,13.0,-35.0
80926.0,-0.256348,-0.966187,-0.081177,2.075195,0.427246,7.507324,0.0,13.0,-35.0
80958.0,-0.250732,-0.966675,-0.089722,3.234863,1.037598,10.253905,0.0,10.0,-38.0
80988.0,-0.238281,-0.97644,-0.094727,4.150391,1.953125,11.596679,0.0,10.0,-38.0
81019.0,-0.223511,-0.968018,-0.100708,4.577637,1.953125,12.268065,0.0,10.0,-38.0
81050.0,-0.214233,-0.984985,-0.111816,5.249023,-0.732422,12.08496,0.0,13.0,-35.0
81081.0,-0.216431,-0.982422,-0.115967,2.624511,1.464844,11.230468,0.0,13.0,-35.0
81112.0,-0.203369,-0.980835,-0.10437,0.305176,2.868652,9.399414,0.0,13.0,-35.0
81143.0,-0.184326,-0.994629,-0.119141,-0.793457,2.807617,7.385253,0.0,12.0,-37.0
81175.0,-0.204224,-0.97583,-0.113892,-3.295898,3.295898,6.225585,0.0,12.0,-37.0
81206.0,-0.18689,-0.990356,-0.097412,-3.479004,4.02832,5.676269,0.0,12.0,-37.0
81238.0,-0.193359,-0.974487,-0.112549,-4.394531,3.662109,4.211426,-1.0,11.0,-34.0
81269.0,-0.178223,-0.990845,-0.0896,-4.089355,6.469726,2.563476,-1.0,11.0,-34.0
81300.0,-0.180054,-0.994263,-0.09729,-4.638672,4.394531,0.183105,-1.0,11.0,-34.0
81332.0,-0.183105,-0.983032,-0.081055,-5.798339,4.455566,-1.342773,0.0,11.0,-37.0
81363.0,-0.194458,-0.983398,-0.081909,-5.798339,-0.305176,-2.624511,0.0,11.0,-37.0
81394.0,-0.196655,-0.981689,-0.078247,-5.432128,-1.342773,-2.075195,0.0,11.0,-37.0
81426.0,-0.194336,-0.985596,-0.080322,-5.493164,-2.319336,-2.624511,-1.0,10.0,-31.0
81457.0,-0.201904,-0.979248,-0.081543,-5.493164,-2.868652,-2.868652,-1.0,10.0,-31.0
81488.0,-0.192505,-0.983276,-0.072998,-4.760742,-1.953125,-3.234863,-1.0,10.0,-31.0
81520.0,-0.199707,-0.986694,-0.078491,-4.516602,-4.272461,-5.187988,-2.0,10.0,-35.0
81551.0,-0.205688,-0.983032,-0.084717,-6.225585,-2.13623,-5.676269,-2.0,10.0,-35.0
81583.0,-0.201172,-0.985962,-0.078491,-7.568359,-3.051758,-6.530761,-2.0,10.0,-35.0
81614.0,-0.207764,-0.981323,-0.071289,-8.728027,-3.784179,-7.751464,-2.0,10.0,-35.0
81646.0,-0.220947,-0.980103,-0.064331,-9.58252,-4.577637,-7.873535,-1.0,8.0,-38.0
81677.0,-0.223755,-0.978027,-0.056763,-9.94873,-3.112793,-7.690429,-1.0,8.0,-38.0
81708.0,-0.232422,-0.984985,-0.049805,-9.82666,-2.624511,-7.141113,-1.0,8.0,-38.0
81740.0,-0.229248,-0.975464,-0.047363,-9.094238,-2.197266,-6.04248,-1.0,11.0,-33.0
81771.0,-0.237671,-0.977783,-0.044434,-7.202148,-2.075195,-5.004883,-1.0,11.0,-33.0
81802.0,-0.239014,-0.979248,-0.03833,-7.202148,-1.586914,-4.272461,-1.0,11.0,-33.0
81834.0,-0.238037,-0.977905,-0.03772,-7.446289,-1.403808,-3.601074,-3.0,11.0,-36.0
81865.0,-0.243042,-0.977051,-0.030273,-6.530761,-0.915527,-2.990722,-3.0,11.0,-36.0
81896.0,-0.247192,-0.973633,-0.025635,-6.103515,-0.915527,-2.502441,-3.0,11.0,-36.0
81928.0,-0.234131,-0.972778,-0.021362,-4.638672,-1.220703,-2.563476,-1.0,10.0,-28.0
81959.0,-0.239868,-0.967285,-0.02124,-2.258301,-3.540039,-2.624511,-1.0,10.0,-28.0
81990.0,-0.244995,-0.981812,-0.034424,0.12207,-3.051758,-2.258301,-1.0,10.0,-28.0
82022.0,-0.23938,-0.999268,-0.0271,-5.004883,-0.671387,1.159668,-5.0,12.0,-28.0
82053.0,-0.219482,-0.951538,-0.022583,-2.01416,0.244141,1.220703,-5.0,12.0,-28.0
82084.0,-0.235352,-0.974976,-0.050537,3.356933,-4.760742,-0.976562,-5.0,12.0,-28.0
82116.0,-0.269653,-0.976074,-0.035522,6.896972,-33.569336,3.112793,-1.0,9.0,-35.0
82147.0,-0.275757,-0.994141,-0.01416,9.033203,-25.146482,6.958007,-1.0,9.0,-35.0
82178.0,-0.25354,-0.972412,-0.034546,-0.244141,-9.887695,2.685547,-1.0,9.0,-35.0
82210.0,-0.22876,-0.984863,-0.040527,0.244141,-4.394531,1.953125,-2.0,8.0,-35.0
82241.0,-0.244629,-0.974487,-0.048096,-0.549316,-4.882812,1.281738,-2.0,8.0,-35.0
82272.0,-0.239624,-0.984009,-0.054565,-2.075195,-0.427246,1.342773,-2.0,8.0,-35.0
82304.0,-0.227173,-0.982544,-0.050659,-1.647949,-1.953125,2.441406,-2.0,9.0,-36.0
82335.0,-0.233765,-0.974609,-0.036743,-2.685547,-0.732422,3.234863,-2.0,9.0,-36.0
82366.0,-0.229248,-0.977051,-0.044189,-2.197266,-3.234863,3.723144,-2.0,9.0,-36.0
82397.0,-0.233521,-0.984009,-0.037354,-0.549316,-4.272461,5.187988,-2.0,9.0,-36.0
82429.0,-0.242187,-0.974487,-0.032593,-0.427246,-1.708984,6.225585,0.0,9.0,-36.0
82460.0,-0.229858,-0.979248,-0.030518,1.220703,3.356933,7.141113,0.0,9.0,-36.0
82491.0,-0.243652,-0.979858,-0.018188,2.502441,8.850098,6.896972,0.0,9.0,-36.0
82522.0,-0.233154,-0.986206,-0.027222,2.502441,16.662598,6.713867,0.0,9.0,-35.0
82553.0,-0.221069,-0.980957,-0.043823,2.563476,18.310547,9.399414,0.0,9.0,-35.0
82584.0,-0.212036,-0.977295,-0.048462,5.065917,15.380858,11.840819,0.0,9.0,-35.0
82616.0,-0.206665,-0.989746,-0.046631,6.347656,14.160155,13.671874,-3.0,9.0,-33.0
82647.0,-0.186768,-0.979248,-0.057007,6.591796,13.610839,15.624999,-3.0,9.0,-33.0
82678.0,-0.181885,-0.993164,-0.062134,7.080078,10.681151,15.930175,-3.0,9.0,-33.0
82710.0,-0.178345,-0.992676,-0.065063,6.530761,10.986327,16.357422,-1.0,8.0,-39.0
82741.0,-0.174683,-0.998535,-0.053345,5.371093,12.390136,16.052246,-1.0,8.0,-39.0
82772.0,-0.174927,-0.997314,-0.059326,3.601074,12.329101,14.953612,-1.0,8.0,-39.0
82804.0,-0.12085,-0.998291,-0.079468,5.004883,11.718749,16.906738,-7.0,8.0,-36.0
82835.0,-0.1427,-0.986694,-0.061035,1.098633,11.413573,15.441894,-7.0,8.0,-36.0
82866.0,-0.114624,-1.000122,-0.060669,2.01416,13.122558,15.747069,-7.0,8.0,-36.0
82898.0,-0.123901,-0.994873,-0.057251,2.441406,11.596679,13.671874,-5.0,10.0,-33.0
82929.0,-0.104492,-0.997803,-0.063721,3.845215,13.183593,11.596679,-5.0,10.0,-33.0
82960.0,-0.081421,-0.987061,-0.068481,7.507324,3.967285,9.094238,-5.0,10.0,-33.0
82992.0,-0.117065,-0.998535,-0.060547,10.375976,-2.624511,9.277344,-3.0,11.0,-38.0
83023.0,-0.117065,-1.004639,-0.065308,9.887695,1.770019,10.986327,-3.0,11.0,-38.0
83054.0,-0.108765,-0.994751,-0.062378,10.009766,7.446289,11.291503,-3.0,11.0,-38.0
83085.0,-0.091553,-0.995361,-0.06897,12.268065,7.629394,12.390136,-3.0,11.0,-38.0
83117.0,-0.087891,-0.999268,-0.082642,14.160155,5.126953,13.122558,-2.0,11.0,-36.0
83148.0,-0.05957,-1.00354,-0.099609,16.845703,6.225585,12.08496,-2.0,11.0,-36.0
83179.0,-0.058716,-0.990601,-0.110962,17.089844,5.187988,10.375976,-2.0,11.0,-36.0
83211.0,-0.045776,-1.004517,-0.121826,18.493652,1.89209,8.361816,-3.0,12.0,-38.0
83242.0,-0.047974,-1.005249,-0.158203,15.441894,0.427246,5.310058,-3.0,12.0,-38.0
83273.0,-0.049194,-1.006958,-0.149536,12.390136,1.525879,2.929687,-3.0,12.0,-38.0
83305.0,-0.057983,-1.00061,-0.155518,9.460449,-0.061035,0.244141,0.0,10.0,-35.0
83336.0,-0.068726,-0.999023,-0.154785,6.347656,-0.305176,-0.549316,0.0,10.0,-35.0
83367.0,-0.046631,-1.003296,-0.143799,5.310058,-0.671387,-2.197266,0.0,10.0,-35.0
83398.0,-0.062012,-0.989136,-0.15564,4.089355,-3.540039,-2.197266,-1.0,10.0,-34.0
83429.0,-0.079468,-0.993774,-0.156372,5.493164,-1.098633,-1.708984,-1.0,10.0,-34.0
83460.0,-0.068359,-0.993774,-0.14624,5.92041,-0.244141,-1.220703,-1.0,10.0,-34.0
83492.0,-0.066528,-0.988281,-0.161865,6.896972,-1.159668,-0.854492,-2.0,11.0,-29.0
83523.0,-0.078125,-0.988403,-0.169922,5.92041,-0.427246,0.732422,-2.0,11.0,-29.0
83554.0,-0.072266,-0.999756,-0.168335,5.737304,2.380371,2.441406,-2.0,11.0,-29.0
83586.0,-0.073242,-0.988037,-0.167847,4.089355,3.540039,3.051758,1.0,11.0,-33.0
83617.0,-0.06543,-0.998779,-0.176025,3.601074,2.929687,5.126953,1.0,11.0,-33.0
83648.0,-0.065796,-0.98645,-0.177124,2.624511,3.112793,6.347656,1.0,11.0,-33.0
83680.0,-0.057129,-0.996216,-0.176392,2.380371,2.746582,7.324218,0.0,10.0,-35.0
83711.0,-0.062134,-0.987793,-0.175293,1.098633,4.577637,7.8125,0.0,10.0,-35.0
83741.0,-0.035889,-0.989746,-0.176025,1.647949,5.737304,8.728027,0.0,10.0,-35.0
83772.0,-0.040405,-0.994385,-0.179321,2.13623,3.173828,7.446289,0.0,10.0,-35.0
83804.0,-0.044434,-0.993164,-0.178467,1.89209,4.272461,7.690429,0.0,11.0,-36.0
83835.0,-0.022827,-0.99231,-0.184082,1.770019,5.676269,7.202148,0.0,11.0,-36.0
83866.0,-0.027954,-0.994263,-0.180908,2.746582,4.638672,5.737304,0.0,11.0,-36.0
83898.0,-0.026978,-0.996826,-0.185669,2.319336,4.943848,5.065917,0.0,10.0,-35.0
83929.0,-0.026367,-0.98938,-0.188843,1.342773,5.737304,4.089355,0.0,10.0,-35.0
83960.0,-0.021484,-0.990723,-0.18811,1.281738,3.967285,3.845215,0.0,10.0,-35.0
83991.0,-0.017822,-0.997437,-0.188232,0.854492,4.089355,2.380371,-2.0,11.0,-39.0
84022.0,-0.021851,-0.994141,-0.190186,0.305176,2.990722,2.01416,-2.0,11.0,-39.0
84053.0,-0.019531,-0.988525,-0.193481,-1.098633,3.112793,1.403808,-2.0,11.0,-39.0
84085.0,-0.012939,-0.990234,-0.189697,-1.220703,2.685547,0.793457,-2.0,11.0,-38.0
84116.0,-0.023682,-0.994751,-0.190063,-1.770019,0.854492,-1.708984,-2.0,11.0,-38.0
84147.0,-0.023437,-0.992676,-0.190674,-2.929687,1.586914,-2.868652,-2.0,11.0,-38.0
84179.0,-0.02063,-0.994995,-0.19397,-4.760742,0.854492,-4.821777,-1.0,12.0,-30.0
84210.0,-0.033691,-0.991455,-0.191895,-6.347656,1.098633,-5.249023,-1.0,12.0,-30.0
84241.0,-0.033936,-0.992432,-0.172363,-7.507324,2.258301,-5.615234,-1.0,12.0,-30.0
84273.0,-0.038086,-0.990967,-0.173584,-7.324218,1.037598,-6.347656,0.0,10.0,-33.0
84304.0,-0.041992,-0.998291,-0.165527,-7.019042,0.610352,-6.591796,0.0,10.0,-33.0
84335.0,-0.052734,-0.995972,-0.171997,-7.324218,1.403808,-5.859375,0.0,10.0,-33.0
84367.0,-0.05896,-0.994141,-0.158203,-7.080078,3.784179,-4.150391,0.0,14.0,-37.0
84398.0,-0.056519,-0.991943,-0.146484,-6.530761,3.356933,-3.845215,0.0,14.0,-37.0
84429.0,-0.05835,-0.995483,-0.148804,-4.760742,3.479004,-2.502441,0.0,14.0,-37.0
84460.0,-0.061157,-0.997192,-0.154297,-4.699707,4.089355,-1.89209,0.0,14.0,-37.0
84492.0,-0.059204,-0.998169,-0.153809,-4.394531,5.004883,-0.732422,0.0,9.0,-36.0
84523.0,-0.052979,-0.997314,-0.146484,-4.211426,5.126953,-0.305176,0.0,9.0,-36.0
84554.0,-0.061401,-0.990723,-0.146729,-4.333496,4.577637,-0.366211,0.0,9.0,-36.0
84586.0,-0.06311,-0.995361,-0.131958,-3.356933,5.554199,1.464844,0.0,12.0,-32.0
84617.0,-0.054077,-0.992432,-0.133179,-2.258301,3.967285,1.159668,0.0,12.0,-32.0
84648.0,-0.058228,-0.990479,-0.136108,-0.488281,3.295898,1.342773,0.0,12.0,-32.0
84680.0,-0.043091,-1.003662,-0.143555,2.01416,2.990722,1.037598,-2.0,15.0,-29.0
84711.0,-0.058594,-0.991577,-0.144287,2.380371,2.624511,-0.366211,-2.0,15.0,-29.0
84742.0,-0.051025,-0.999023,-0.137573,2.01416,2.380371,-1.098633,-2.0,15.0,-29.0
84774.0,-0.037231,-1.013916,-0.159668,-1.220703,-0.915527,-3.845215,0.0,13.0,-31.0
84805.0,-0.066162,-0.992676,-0.157715,-3.540039,0.427246,-5.981445,0.0,13.0,-31.0
84836.0,-0.060791,-1.002319,-0.119629,-3.234863,0.976562,-6.04248,0.0,13.0,-31.0
84868.0,-0.069824,-0.988281,-0.126709,-0.610352,-3.051758,-6.591796,-1.0,11.0,-33.0
84899.0,-0.085327,-0.989136,-0.130249,0.793457,-0.244141,-5.310058,-1.0,11.0,-33.0
84930.0,-0.060425,-1.003906,-0.133057,3.234863,-0.244141,-4.333496,-1.0,11.0,-33.0
84962.0,-0.093872,-0.991211,-0.134766,3.784179,-2.197266,-3.967285,0.0,13.0,-34.0
84993.0,-0.076782,-0.986084,-0.152222,3.479004,-0.671387,-3.051758,0.0,13.0,-34.0
85024.0,-0.075317,-0.998047,-0.144775,3.417969,-2.624511,-3.112793,0.0,13.0,-34.0
85056.0,-0.071777,-0.997314,-0.1698,2.197266,-3.479004,-5.187988,0.0,12.0,-33.0
85087.0,-0.09729,-1.004883,-0.135254,1.708984,-0.732422,-3.662109,0.0,12.0,-33.0
85118.0,-0.090942,-0.974854,-0.165527,0.915527,-2.441406,-4.089355,0.0,12.0,-33.0
85149.0,-0.097534,-0.990601,-0.15686,2.319336,1.037598,-1.037598,0.0,12.0,-33.0
85181.0,-0.087036,-0.991089,-0.140015,3.967285,1.525879,-0.854492,0.0,11.0,-37.0
85212.0,-0.104492,-0.994385,-0.142822,6.896972,1.159668,1.708984,0.0,11.0,-37.0
85243.0,-0.088135,-0.970337,-0.180054,8.239746,1.708984,3.967285,0.0,11.0,-37.0
85275.0,-0.084839,-0.99292,-0.169189,9.033203,2.319336,5.004883,1.0,14.0,-35.0
85306.0,-0.077393,-1.000244,-0.174683,7.690429,2.380371,4.577637,1.0,14.0,-35.0
85337.0,-0.07373,-0.996826,-0.181885,6.408691,3.295898,4.638672,1.0,14.0,-35.0
85369.0,-0.068726,-0.979858,-0.190552,4.150391,3.540039,3.417969,1.0,12.0,-32.0
85400.0,-0.066162,-0.991333,-0.187012,3.479004,1.037598,1.953125,1.0,12.0,-32.0
85431.0,-0.065186,-1.003418,-0.187378,2.441406,-0.732422,0.915527,1.0,12.0,-32.0
85463.0,-0.07251,-0.98584,-0.188965,1.403808,-2.685547,-0.793457,0.0,12.0,-29.0
85494.0,-0.072388,-0.993164,-0.198242,0.183105,-2.807617,-0.488281,0.0,12.0,-29.0
85525.0,-0.076904,-0.978394,-0.19104,0.12207,-3.601074,-1.098633,0.0,12.0,-29.0
85557.0,-0.086182,-0.974121,-0.181519,-0.061035,-5.187988,-0.488281,1.0,13.0,-38.0
85588.0,-0.077271,-0.995605,-0.186157,-1.281738,-4.02832,-0.061035,1.0,13.0,-38.0
85619.0,-0.07251,-0.992798,-0.187744,-3.112793,-3.662109,-0.915527,1.0,13.0,-38.0
85651.0,-0.080933,-0.989868,-0.184082,-4.089355,-3.540039,-1.342773,-1.0,13.0,-35.0
85683.0,-0.067017,-1.000977,-0.194824,-3.723144,-1.89209,-0.915527,-1.0,13.0,-35.0
85714.0,-0.08374,-0.971191,-0.191284,-2.929687,0.427246,-0.244141,-1.0,13.0,-35.0
85746.0,-0.082275,-0.982788,-0.177002,-1.647949,1.464844,1.770019,1.0,11.0,-32.0
85777.0,-0.090698,-0.976929,-0.173828,-0.366211,0.549316,3.112793,1.0,11.0,-32.0
85808.0,-0.075195,-1.004883,-0.167969,0.488281,2.502441,5.126953,1.0,11.0,-32.0
85839.0,-0.062134,-0.979126,-0.189819,0.061035,1.586914,4.394531,1.0,11.0,-32.0
85871.0,-0.059814,-0.997559,-0.183228,1.525879,1.770019,4.699707,0.0,11.0,-31.0
85902.0,-0.054077,-0.999146,-0.174683,1.403808,0.061035,2.685547,0.0,11.0,-31.0
85933.0,-0.071655,-0.984741,-0.191284,0.244141,0.976562,2.258301,0.0,11.0,-31.0
85965.0,-0.051636,-0.98645,-0.188721,-0.244141,1.220703,1.403808,-1.0,12.0,-31.0
85996.0,-0.05896,-1.005005,-0.187134,-0.366211,-1.647949,-0.488281,-1.0,12.0,-31.0
86027.0,-0.05896,-0.987183,-0.188843,-2.380371,0.427246,-1.831055,-1.0,12.0,-31.0
86059.0,-0.061768,-0.984741,-0.183838,-2.441406,-0.915527,-2.624511,0.0,9.0,-33.0
86091.0,-0.058594,-0.998535,-0.173096,-2.868652,-2.380371,-5.004883,0.0,9.0,-33.0
86122.0,-0.060059,-0.998657,-0.187988,-3.051758,-3.173828,-6.530761,0.0,9.0,-33.0
86154.0,-0.074463,-0.982178,-0.177979,-2.990722,-2.13623,-6.225585,1.0,13.0,-32.0
86185.0,-0.07959,-0.990112,-0.174194,-2.990722,-2.868652,-6.103515,1.0,13.0,-32.0
86216.0,-0.086426,-0.984741,-0.172241,-3.234863,-1.525879,-5.615234,1.0,13.0,-32.0
86248.0,-0.091431,-0.985229,-0.166748,-3.662109,-0.305176,-5.187988,1.0,11.0,-31.0
86279.0,-0.083496,-0.984497,-0.176514,-3.417969,-1.464844,-4.211426,1.0,11.0,-31.0
86310.0,-0.097168,-0.988159,-0.172119,-4.089355,-0.732422,-3.479004,1.0,11.0,-31.0
86342.0,-0.088501,-1.000977,-0.164185,-3.723144,-0.305176,-1.953125,-1.0,10.0,-34.0
86373.0,-0.098999,-0.977905,-0.166504,-4.089355,-0.732422,-1.220703,-1.0,10.0,-34.0
86404.0,-0.087158,-0.989014,-0.16626,-3.112793,-0.976562,-0.488281,-1.0,10.0,-34.0
86436.0,-0.086426,-0.998291,-0.167725,-2.502441,-2.258301,-0.732422,0.0,11.0,-36.0
86467.0,-0.098267,-0.986938,-0.165649,-2.685547,-0.305176,-0.183105,0.0,11.0,-36.0
86498.0,-0.081055,-0.996216,-0.159302,-2.563476,-0.061035,0.671387,0.0,11.0,-36.0
86530.0,-0.095215,-0.987793,-0.165649,-3.112793,-1.098633,0.427246,-1.0,11.0,-32.0
86561.0,-0.090332,-0.987183,-0.15686,-3.479004,-0.12207,1.159668,-1.0,11.0,-32.0
86592.0,-0.087524,-0.995605,-0.159058,-2.990722,-1.342773,1.403808,-1.0,11.0,-32.0
86623.0,-0.092896,-0.984619,-0.158936,-3.479004,-0.183105,1.647949,-1.0,11.0,-32.0
86655.0,-0.082397,-0.997925,-0.15625,-2.441406,-0.854492,1.525879,0.0,13.0,-35.0
86686.0,-0.084595,-0.993286,-0.162231,-2.563476,-0.427246,1.281738,0.0,13.0,-35.0
86717.0,-0.088135,-0.992676,-0.154785,-2.990722,0.183105,1.342773,0.0,13.0,-35.0
86749.0,-0.075684,-1.001465,-0.154541,-2.868652,0.366211,0.976562,0.0,14.0,-33.0
86780.0,-0.094971,-0.986694,-0.15332,-4.02832,0.915527,0.976562,0.0,14.0,-33.0
86811.0,-0.081665,-0.987915,-0.145874,-3.723144,1.037598,1.464844,0.0,14.0,-33.0
86843.0,-0.083862,-0.998535,-0.139282,-2.807617,-0.12207,1.770019,0.0,13.0,-31.0
86874.0,-0.084351,-0.987671,-0.149292,-2.563476,1.159668,1.953125,0.0,13.0,-31.0
86905.0,-0.08252,-1.002563,-0.135742,-1.525879,1.89209,2.807617,0.0,13.0,-31.0
86937.0,-0.078857,-0.988403,-0.144897,-1.037598,1.220703,2.807617,0.0,13.0,-39.0
86968.0,-0.078125,-0.99939,-0.137329,-0.183105,1.770019,3.356933,0.0,13.0,-39.0
86998.0,-0.071289,-0.99707,-0.140381,0.549316,0.671387,3.234863,0.0,13.0,-39.0
87030.0,-0.074585,-0.995728,-0.14563,0.0,1.464844,2.807617,0.0,11.0,-36.0
87061.0,-0.066406,-0.998535,-0.14856,0.183105,1.464844,2.380371,0.0,11.0,-36.0
87092.0,-0.067627,-0.989502,-0.1427,-0.061035,0.671387,1.281738,0.0,11.0,-36.0
87124.0,-0.068359,-1.00293,-0.143188,0.244141,-0.366211,0.366211,0.0,14.0,-36.0
87155.0,-0.07019,-0.995117,-0.148193,-0.244141,-0.12207,-0.305176,0.0,14.0,-36.0
87186.0,-0.070312,-0.992676,-0.141479,-0.12207,-0.732422,-0.366211,0.0,14.0,-36.0
87218.0,-0.069702,-0.999268,-0.141968,0.488281,-1.708984,-0.671387,-3.0,14.0,-33.0
87249.0,-0.070435,-0.993408,-0.150024,0.671387,-1.953125,-1.586914,-3.0,14.0,-33.0
87280.0,-0.06958,-0.993652,-0.140259,0.793457,-3.112793,-1.831055,-3.0,14.0,-33.0
87311.0,-0.073242,-1.00293,-0.152954,0.610352,-3.234863,-1.89209,-3.0,14.0,-33.0
87343.0,-0.075439,-0.991455,-0.149048,0.12207,-2.197266,-2.075195,-1.0,11.0,-35.0
87374.0,-0.080322,-0.989868,-0.149902,0.366211,-3.112793,-2.319336,-1.0,11.0,-35.0
87405.0,-0.076782,-0.996094,-0.149292,0.610352,-3.051758,-2.197266,-1.0,11.0,-35.0
87437.0,-0.078003,-0.994751,-0.156982,0.0,-3.356933,-2.685547,-1.0,13.0,-36.0
87468.0,-0.082642,-0.99353,-0.150879,0.0,-2.441406,-2.01416,-1.0,13.0,-36.0
87499.0,-0.081177,-0.996582,-0.1521,-0.244141,-3.295898,-1.953125,-1.0,13.0,-36.0
87531.0,-0.085449,-0.987793,-0.155762,-0.427246,-2.258301,-1.586914,0.0,9.0,-39.0
87562.0,-0.088135,-0.995239,-0.147217,-0.183105,-2.990722,-1.098633,0.0,9.0,-39.0
87593.0,-0.081055,-0.995117,-0.152344,-0.244141,-2.319336,-0.671387,0.0,9.0,-39.0
87625.0,-0.088745,-0.991821,-0.15332,-0.549316,-2.563476,-0.305176,1.0,11.0,-34.0
87656.0,-0.082886,-0.991089,-0.151245,0.12207,-0.976562,0.732422,1.0,11.0,-34.0
87686.0,-0.081543,-0.993164,-0.148437,0.610352,-2.197266,0.549316,1.0,11.0,-34.0
87718.0,-0.082275,-0.989624,-0.162354,0.366211,-1.464844,1.098633,0.0,12.0,-36.0
87749.0,-0.081909,-0.991699,-0.151978,0.732422,-2.01416,1.403808,0.0,12.0,-36.0
87780.0,-0.077026,-0.997803,-0.151611,0.793457,-1.647949,1.281738,0.0,12.0,-36.0
87812.0,-0.077026,-0.997925,-0.155273,0.671387,-1.708984,0.610352,0.0,12.0,-35.0
87843.0,-0.07251,-0.995361,-0.157959,1.037598,-1.464844,1.037598,0.0,12.0,-35.0
87874.0,-0.077271,-0.99292,-0.155762,0.427246,-1.708984,0.427246,0.0,12.0,-35.0
87906.0,-0.077148,-0.993896,-0.156982,0.854492,-1.708984,0.549316,-2.0,10.0,-38.0
87937.0,-0.072266,-0.993896,-0.15686,1.037598,-2.075195,0.183105,-2.0,10.0,-38.0
87968.0,-0.073242,-0.988159,-0.158936,1.281738,-2.624511,0.366211,-2.0,10.0,-38.0
87999.0,-0.073853,-0.994995,-0.158447,1.647949,-3.417969,-0.183105,-2.0,10.0,-38.0
88031.0,-0.075806,-0.991333,-0.164062,1.647949,-3.234863,-0.488281,1.0,10.0,-34.0
88062.0,-0.069214,-0.989624,-0.16626,1.220703,-3.112793,-1.037598,1.0,10.0,-34.0
88093.0,-0.072998,-0.995361,-0.170532,1.037598,-4.02832,-1.831055,1.0,10.0,-34.0
88125.0,-0.070312,-0.986328,-0.171631,0.305176,-4.455566,-2.563476,0.0,10.0,-35.0
88156.0,-0.083252,-1.002197,-0.161377,-1.037598,-4.211426,-3.295898,0.0,10.0,-35.0
88187.0,-0.082642,-0.984253,-0.17041,-1.098633,-2.380371,-2.807617,0.0,10.0,-35.0
88219.0,-0.075317,-0.994019,-0.162964,-0.854492,-3.173828,-3.479004,0.0,10.0,-29.0
88250.0,-0.085815,-0.993408,-0.16394,-0.671387,-3.295898,-3.356933,0.0,10.0,-29.0
88281.0,-0.08667,-0.989868,-0.167847,-1.89209,-1.586914,-3.601074,0.0,10.0,-29.0
88313.0,-0.076538,-0.988525,-0.171021,-2.319336,-0.854492,-3.417969,0.0,11.0,-35.0
88344.0,-0.087891,-0.995972,-0.174072,-2.624511,-3.173828,-3.967285,0.0,11.0,-35.0
88375.0,-0.093384,-0.992187,-0.161987,-3.784179,-1.159668,-3.90625,0.0,11.0,-35.0
88407.0,-0.095703,-0.986572,-0.164062,-3.540039,-4.089355,-3.234863,1.0,11.0,-36.0
88439.0,-0.093994,-0.993774,-0.162842,-4.394531,-2.624511,-3.051758,1.0,11.0,-36.0
88470.0,-0.096924,-0.99292,-0.159546,-3.723144,-4.02832,-2.929687,1.0,11.0,-36.0
88502.0,-0.100098,-0.994263,-0.158203,-4.211426,-3.051758,-2.868652,-1.0,9.0,-30.0
88533.0,-0.096191,-0.992798,-0.15625,-4.638672,-1.89209,-2.441406,-1.0,9.0,-30.0
88564.0,-0.100708,-0.991699,-0.151245,-5.065917,-1.281738,-3.112793,-1.0,9.0,-30.0
88596.0,-0.098633,-0.990967,-0.151978,-4.577637,-1.342773,-2.563476,-1.0,8.0,-36.0
88627.0,-0.10437,-0.993652,-0.144897,-4.821777,-1.831055,-2.563476,-1.0,8.0,-36.0
88658.0,-0.105713,-0.991333,-0.143677,-4.638672,-1.037598,-1.831055,-1.0,8.0,-36.0
88690.0,-0.11145,-0.995361,-0.136719,-4.638672,-0.488281,-0.976562,0.0,9.0,-39.0
88721.0,-0.102905,-0.990234,-0.13562,-3.967285,0.0,-0.488281,0.0,9.0,-39.0
88752.0,-0.109497,-0.993408,-0.132446,-2.746582,-1.037598,0.183105,0.0,9.0,-39.0
88783.0,-0.106323,-0.991577,-0.134766,-2.319336,0.061035,0.671387,0.0,9.0,-39.0
88815.0,-0.10376,-0.993896,-0.133179,-1.281738,-0.12207,0.976562,0.0,10.0,-35.0
88846.0,-0.101685,-0.99353,-0.137939,-1.403808,-0.183105,0.976562,0.0,10.0,-35.0
88877.0,-0.099609,-0.996948,-0.137817,-1.770019,-0.244141,0.610352,0.0,10.0,-35.0
88909.0,-0.098511,-0.992554,-0.137939,-2.319336,0.061035,0.366211,-1.0,9.0,-35.0
88940.0,-0.097412,-0.994873,-0.134277,-2.258301,-0.671387,-0.183105,-1.0,9.0,-35.0
88971.0,-0.098633,-0.995605,-0.132202,-2.197266,-0.854492,-0.976562,-1.0,9.0,-35.0
89003.0,-0.101196,-0.994141,-0.133545,-2.197266,-1.098633,-0.976562,0.0,11.0,-33.0
89034.0,-0.10083,-0.992187,-0.129272,-1.953125,-1.464844,-1.342773,0.0,11.0,-33.0
89065.0,-0.108398,-0.996948,-0.128418,-2.01416,-1.464844,-1.342773,0.0,11.0,-33.0
89097.0,-0.104614,-0.994507,-0.129883,-1.342773,-1.342773,-0.976562,0.0,10.0,-33.0
89128.0,-0.106934,-0.991821,-0.129395,-0.976562,-1.953125,-0.244141,0.0,10.0,-33.0
89159.0,-0.106445,-0.990479,-0.131104,-1.464844,-1.342773,-0.427246,0.0,10.0,-33.0
89191.0,-0.108032,-0.997437,-0.130127,-0.793457,-1.464844,0.305176,0.0,9.0,-36.0
89222.0,-0.102295,-0.991821,-0.133789,-1.281738,-1.159668,0.610352,0.0,9.0,-36.0
89253.0,-0.108643,-0.995483,-0.129395,-1.831055,-1.647949,0.854492,0.0,9.0,-36.0
89285.0,-0.098999,-0.996582,-0.134033,-2.746582,-1.464844,1.281738,-1.0,10.0,-35.0
89316.0,-0.101929,-0.993164,-0.126587,-2.441406,-2.624511,1.342773,-1.0,10.0,-35.0
89347.0,-0.099731,-0.996338,-0.129883,-1.586914,-3.051758,2.258301,-1.0,10.0,-35.0
89379.0,-0.02002,-0.998901,-0.141846,2.258301,-12.756347,3.723144,-1.0,12.0,-36.0
89410.0,-0.147095,-0.980225,-0.120728,7.690429,-30.273436,6.469726,-1.0,12.0,-36.0
89441.0,-0.102905,-1.010254,-0.132812,7.568359,-16.479492,7.385253,-1.0,12.0,-36.0
89472.0,-0.104736,-0.991821,-0.133911,2.380371,-9.033203,3.967285,-1.0,12.0,-36.0
89504.0,-0.083008,-0.998413,-0.140991,1.342773,-4.089355,3.662109,0.0,5.0,-32.0
89535.0,-0.084351,-0.992554,-0.140869,1.525879,-4.638672,3.723144,0.0,5.0,-32.0
89566.0,-0.086792,-0.994263,-0.138794,0.854492,-2.563476,3.356933,0.0,5.0,-32.0
89598.0,-0.077759,-0.997803,-0.145752,0.549316,-1.281738,3.173828,-1.0,8.0,-33.0
89629.0,-0.072876,-0.994995,-0.149048,1.098633,-1.953125,3.112793,-1.0,8.0,-33.0
89660.0,-0.069214,-0.996582,-0.145386,1.220703,-2.258301,2.990722,-1.0,8.0,-33.0
89692.0,-0.07019,-0.996582,-0.154541,0.793457,-2.685547,2.685547,-1.0,8.0,-31.0
89723.0,-0.065796,-0.999023,-0.151855,0.183105,-2.807617,2.990722,-1.0,8.0,-31.0
89754.0,-0.064697,-0.993164,-0.153564,-0.549316,-2.807617,2.746582,-1.0,8.0,-31.0
89786.0,-0.05896,-0.998657,-0.154297,0.0,-4.394531,3.112793,1.0,6.0,-34.0
89817.0,-0.060913,-0.999023,-0.154419,0.183105,-4.455566,2.075195,1.0,6.0,-34.0
89848.0,-0.060913,-0.994629,-0.154785,-1.403808,-3.234863,1.220703,1.0,6.0,-34.0
89880.0,-0.065308,-0.997925,-0.151123,-2.01416,-3.540039,0.976562,0.0,7.0,-34.0
89911.0,-0.0625,-0.999634,-0.149048,-3.845215,-1.89209,0.366211,0.0,7.0,-34.0
89942.0,-0.056274,-0.995361,-0.14563,-3.90625,-2.380371,-0.610352,0.0,7.0,-34.0
89974.0,-0.057617,-0.99585,-0.143799,-3.90625,-1.89209,-1.525879,0.0,7.0,-41.0
90005.0,-0.066284,-0.994629,-0.1427,-3.723144,-1.770019,-2.502441,0.0,7.0,-41.0
90036.0,-0.063354,-0.99707,-0.139282,-3.356933,-1.525879,-2.807617,0.0,7.0,-41.0
90068.0,-0.07251,-1.0,-0.137451,-3.173828,-1.098633,-2.746582,-2.0,6.0,-35.0
90099.0,-0.070679,-0.996216,-0.136353,-3.173828,-0.610352,-1.708984,-2.0,6.0,-35.0
90130.0,-0.068848,-0.995972,-0.137085,-3.173828,0.183105,-1.342773,-2.0,6.0,-35.0
90161.0,-0.066772,-0.997681,-0.136597,-3.051758,0.183105,-1.159668,-2.0,6.0,-35.0
90193.0,-0.071411,-0.997437,-0.135376,-2.929687,0.305176,-1.342773,-1.0,5.0,-37.0
90224.0,-0.071777,-0.998779,-0.133667,-3.173828,-0.12207,-0.732422,-1.0,5.0,-37.0
90255.0,-0.06665,-0.997192,-0.138428,-3.479004,-1.281738,0.427246,-1.0,5.0,-37.0
90287.0,-0.067261,-0.996948,-0.13147,-3.723144,-2.075195,0.0,-2.0,7.0,-39.0
90318.0,-0.065186,-0.997437,-0.130005,-3.723144,-2.258301,0.244141,-2.0,7.0,-39.0
90349.0,-0.059082,-0.993286,-0.121582,-2.624511,-2.502441,-0.305176,-2.0,7.0,-39.0
90381.0,-0.080566,-1.001465,-0.118164,-1.159668,-2.380371,-1.281738,-1.0,7.0,-39.0
90412.0,-0.074707,-0.998657,-0.114868,-0.732422,0.366211,-1.464844,-1.0,7.0,-39.0
90443.0,-0.070312,-0.99939,-0.121704,0.305176,0.0,-1.281738,-1.0,7.0,-39.0
90475.0,-0.057495,-0.991821,-0.128662,1.464844,-1.647949,-0.366211,-1.0,8.0,-35.0
90506.0,-0.08728,-0.999512,-0.124878,1.403808,-2.13623,-0.244141,-1.0,8.0,-35.0
90537.0,-0.082397,-1.004272,-0.128418,0.976562,-1.953125,1.708984,-1.0,8.0,-35.0
90569.0,-0.065186,-1.005493,-0.134399,-0.488281,-1.770019,3.112793,-1.0,7.0,-41.0
90600.0,-0.092163,-1.004761,-0.140747,-6.225585,-2.685547,5.981445,-1.0,7.0,-41.0
90631.0,-0.042603,-0.996704,-0.138184,-5.859375,-1.953125,6.469726,-1.0,7.0,-41.0
90663.0,-0.0354,-0.998779,-0.116821,-6.225585,-5.798339,4.455566,-1.0,8.0,-35.0
90695.0,-0.078613,-1.004761,-0.117188,-5.371093,-5.615234,4.577637,-1.0,8.0,-35.0
90726.0,-0.032593,-1.000977,-0.118896,-6.286621,0.427246,4.638672,-1.0,8.0,-35.0
90758.0,-0.038818,-0.994019,-0.113159,-5.310058,-4.089355,3.967285,-1.0,3.0,-35.0
90789.0,-0.042358,-0.994019,-0.11731,-3.417969,-7.324218,4.394531,-1.0,3.0,-35.0
90820.0,-0.053345,-1.012695,-0.119751,-5.065917,-9.338379,4.943848,-1.0,3.0,-35.0
90852.0,-0.057739,-1.010254,-0.113403,-7.690429,-6.408691,7.141113,-3.0,5.0,-33.0
90884.0,-0.046021,-1.003052,-0.107788,-10.253905,-3.295898,9.82666,-3.0,5.0,-33.0
90915.0,-0.040649,-1.011475,-0.101929,-12.512206,-4.943848,13.671874,-3.0,5.0,-33.0
90946.0,-0.032349,-0.999634,-0.083008,-14.09912,-3.540039,19.348145,-3.0,5.0,-33.0
90978.0,-0.016968,-1.015015,-0.081909,-14.831542,-3.051758,21.301268,-3.0,4.0,-39.0
91009.0,-0.011963,-1.012573,-0.066895,-16.967773,-8.056641,25.756834,-3.0,4.0,-39.0
91040.0,0.012695,-1.009521,-0.056641,-15.99121,-9.338379,30.151365,-3.0,4.0,-39.0
91072.0,0.034912,-1.001465,-0.062378,-16.662598,-8.972168,28.808592,-6.0,4.0,-35.0
91103.0,0.037109,-1.006104,-0.064331,-15.747069,-12.329101,30.761717,-6.0,4.0,-35.0
91134.0,0.057495,-1.006836,-0.032104,-12.756347,-15.075683,30.883787,-6.0,4.0,-35.0
91166.0,0.078003,-0.99646,-0.028442,-8.605957,-13.793944,35.827637,-6.0,2.0,-36.0
91197.0,0.058838,-1.032227,-0.044189,-9.521484,-14.038085,43.701168,-6.0,2.0,-36.0
91228.0,0.179077,-0.978027,-0.008911,-16.967773,-1.525879,48.767086,-6.0,2.0,-36.0
91260.0,0.177734,-1.016113,-0.028931,-18.005371,-7.446289,51.269527,-8.0,0.0,-33.0
91291.0,0.106445,-1.015747,0.018799,-22.033689,-4.394531,50.842281,-8.0,0.0,-33.0
91322.0,0.206421,-0.991577,0.031738,-17.822266,2.929687,48.034664,-8.0,0.0,-33.0
91354.0,0.316772,-0.934937,0.031616,-12.145995,11.413573,37.902832,-10.0,-1.0,-38.0
91385.0,0.352905,-0.934937,0.037109,-3.90625,7.568359,27.587889,-10.0,-1.0,-38.0
91416.0,0.250366,-0.996704,0.002563,3.723144,-8.605957,22.521971,-10.0,-1.0,-38.0
91448.0,0.254517,-0.998169,0.005249,3.601074,-3.967285,24.353025,-9.0,-3.0,-35.0
91479.0,0.373413,-0.96814,-0.023682,4.577637,-4.272461,23.681639,-9.0,-3.0,-35.0
91510.0,0.362793,-0.977783,0.008179,5.92041,-7.8125,20.629881,-9.0,-3.0,-35.0
91541.0,0.453857,-0.979126,0.041992,1.525879,-5.432128,22.27783,-5.0,-1.0,-34.0
91572.0,0.7677,-0.862793,0.135986,-3.601074,-5.92041,41.931149,-5.0,-1.0,-34.0
91603.0,0.677612,-0.910889,0.142456,-2.01416,-13.183593,59.814449,-5.0,-1.0,-34.0
91634.0,0.566772,-0.968384,0.158203,-10.19287,-13.244628,69.030762,-5.0,-1.0,-34.0
91666.0,0.546387,-0.908691,0.161255,-22.338865,-7.446289,68.237305,-10.0,-4.0,-33.0
91697.0,0.532715,-0.848145,0.123535,-28.564451,-7.8125,63.96484,-10.0,-4.0,-33.0
91728.0,0.548584,-0.8302,0.066406,-31.921385,-12.695312,58.654781,-10.0,-4.0,-33.0
91759.0,0.518433,-0.801758,0.055542,-32.531738,-11.718749,50.109859,-12.0,-6.0,-35.0
91790.0,0.488159,-0.808105,0.049438,-31.616209,-5.065917,47.729488,-12.0,-6.0,-35.0
91821.0,0.461304,-0.818359,0.056885,-34.118652,-0.244141,41.381832,-12.0,-6.0,-35.0
91853.0,0.470459,-0.827148,0.047485,-30.456541,-4.821777,35.15625,-12.0,-5.0,-34.0
91884.0,0.465576,-0.795532,0.04895,-25.390623,-7.8125,28.19824,-12.0,-5.0,-34.0
91915.0,0.547729,-0.780273,0.06543,-16.967773,-3.723144,27.221678,-12.0,-5.0,-34.0
91947.0,0.60144,-0.768799,0.070679,-7.507324,-6.652832,24.963377,-14.0,-8.0,-31.0
91978.0,0.581665,-0.817505,0.084961,0.366211,-19.958496,18.676758,-14.0,-8.0,-31.0
92008.0,0.542969,-0.830811,0.127808,2.746582,-11.413573,19.714355,-14.0,-8.0,-31.0
92039.0,0.577881,-0.856079,0.151733,0.854492,0.12207,22.094725,-13.0,-9.0,-31.0
92070.0,0.626587,-0.857788,0.146484,2.563476,-8.056641,19.470215,-13.0,-9.0,-31.0
92100.0,0.582397,-0.826172,0.188599,2.441406,-9.216309,21.362303,-13.0,-9.0,-31.0
92132.0,0.703369,-0.782104,0.181885,3.112793,1.708984,31.98242,-12.0,-10.0,-37.0
92162.0,0.748169,-0.729736,0.188843,4.638672,3.90625,36.987305,-12.0,-10.0,-37.0
92192.0,0.702393,-0.699097,0.17334,6.469726,-1.770019,40.64941,-12.0,-10.0,-37.0
92222.0,0.633179,-0.718872,0.167969,9.277344,-5.065917,46.630856,-12.0,-10.0,-37.0
92253.0,0.578613,-0.718262,0.160522,9.216309,-3.173828,45.654293,-10.0,-13.0,-32.0
92284.0,0.496338,-0.733765,0.157349,11.108397,-2.807617,38.879395,-10.0,-13.0,-32.0
92314.0,0.460205,-0.751099,0.097168,10.681151,-4.211426,25.817869,-10.0,-13.0,-32.0
92345.0,0.3927,-0.751709,0.10376,11.96289,-8.056641,6.652832,-9.0,-12.0,-33.0
92376.0,0.698608,-0.911865,0.453735,3.295898,14.648437,-10.31494,-9.0,-12.0,-33.0
92406.0,1.425781,-0.975952,0.331909,-2.380371,30.395506,0.976562,-9.0,-12.0,-33.0
92438.0,0.472778,-0.559937,0.016846,16.296387,-44.43359,-55.053707,-10.0,-14.0,-31.0
92469.0,0.599731,-0.814087,0.120117,-0.183105,-12.512206,19.104004,-10.0,-14.0,-31.0
92499.0,0.605957,-0.836548,0.17334,0.671387,41.687008,-6.286621,-10.0,-14.0,-31.0
92530.0,0.793213,-0.620361,0.171387,-7.507324,22.15576,-19.53125,-8.0,-9.0,-38.0
92561.0,0.818237,-0.651611,0.076172,10.009766,-0.732422,-6.835937,-8.0,-9.0,-38.0
92591.0,0.73584,-0.646729,0.095825,14.526366,-4.821777,-7.629394,-8.0,-9.0,-38.0
92623.0,0.751343,-0.703247,0.086304,18.798828,4.943848,-11.779784,-7.0,-11.0,-33.0
92654.0,0.926636,-0.729004,-0.016357,28.19824,-15.136718,-28.564451,-7.0,-11.0,-33.0
92685.0,0.793457,-0.714722,0.033203,38.879395,-36.437988,-46.691891,-7.0,-11.0,-33.0
92715.0,0.661499,-0.750488,0.103394,37.536621,-29.785154,-53.283688,-7.0,-11.0,-33.0
92747.0,0.581299,-0.790405,0.145142,27.038572,-19.104004,-52.551266,-7.0,-11.0,-37.0
92778.0,0.63623,-0.825806,0.105347,20.874022,-18.676758,-57.067867,-7.0,-11.0,-37.0
92808.0,0.622192,-0.788696,0.118896,16.845703,-18.493652,-62.866207,-7.0,-11.0,-37.0
92839.0,0.608276,-0.780518,0.130493,12.878417,-23.254393,-65.551758,-6.0,-11.0,-31.0
92870.0,0.534302,-0.830078,0.118286,7.995605,-31.921385,-60.546871,-6.0,-11.0,-31.0
92901.0,0.47876,-0.865845,0.126709,3.845215,-35.705566,-56.640621,-6.0,-11.0,-31.0
92932.0,0.328979,-1.003662,0.086426,1.220703,-40.100098,-51.025387,-6.0,-11.0,-33.0
92963.0,0.261108,-1.009277,0.084229,-7.446289,-19.042969,-45.776363,-6.0,-11.0,-33.0
92994.0,0.415527,-0.90564,0.092896,-17.944336,9.033203,-30.395506,-6.0,-11.0,-33.0
93025.0,0.45459,-0.901367,0.13501,-17.76123,-3.479004,-22.888182,-8.0,-10.0,-32.0
93056.0,0.378418,-0.901489,0.168091,-16.723633,-5.249023,-15.747069,-8.0,-10.0,-32.0
93087.0,0.385986,-0.911377,0.17627,-13.244628,-4.821777,-3.479004,-8.0,-10.0,-32.0
93119.0,0.35791,-0.9104,0.189575,-9.82666,-8.422852,7.751464,-9.0,-11.0,-33.0
93150.0,0.389893,-0.889893,0.166016,-4.150391,-4.516602,24.108885,-9.0,-11.0,-33.0
93181.0,0.443726,-0.889771,0.177246,0.610352,3.723144,32.226562,-9.0,-11.0,-33.0
93212.0,0.468872,-0.895752,0.206543,6.286621,14.160155,26.245115,-8.0,-11.0,-35.0
93242.0,0.524414,-0.846313,0.216064,14.038085,5.249023,14.22119,-8.0,-11.0,-35.0
93272.0,0.3927,-0.892822,0.189087,25.390623,-9.094238,14.587401,-8.0,-11.0,-35.0
93302.0,0.351074,-0.95105,0.153687,27.282713,2.13623,24.230955,-8.0,-11.0,-35.0
93333.0,0.471436,-0.890137,0.120483,21.240232,19.897461,23.254393,-4.0,-12.0,-36.0
93363.0,0.569092,-0.835937,0.124878,31.372068,8.117676,20.629881,-4.0,-12.0,-36.0
93393.0,0.507935,-0.873657,0.12439,37.963867,-4.821777,17.63916,-4.0,-12.0,-36.0
93424.0,0.471436,-0.898071,0.083618,34.606934,6.347656,15.136718,-3.0,-13.0,-37.0
93455.0,0.535522,-0.867065,0.026611,30.883787,13.793944,11.108397,-3.0,-13.0,-37.0
93485.0,0.547119,-0.866211,0.031982,30.334471,8.300781,10.31494,-3.0,-13.0,-37.0
93516.0,0.511963,-0.884277,0.023804,25.634764,8.544922,8.361816,-3.0,-11.0,-34.0
93547.0,0.554687,-0.847412,-0.00293,22.644041,12.268065,3.90625,-3.0,-11.0,-34.0
93578.0,0.588989,-0.84436,-0.001709,24.719236,5.187988,2.13623,-3.0,-11.0,-34.0
93609.0,0.526123,-0.867676,-0.006226,28.747557,-10.009766,-0.12207,-1.0,-13.0,-41.0
93640.0,0.490356,-0.875854,-0.038574,26.672361,-7.629394,1.647949,-1.0,-13.0,-41.0
93670.0,0.510376,-0.885742,-0.046631,20.507811,7.8125,4.638672,-1.0,-13.0,-41.0
93701.0,0.56189,-0.860718,-0.068848,13.97705,10.742187,3.723144,-1.0,-12.0,-37.0
93732.0,0.582031,-0.851196,-0.075928,11.230468,-1.098633,0.549316,-1.0,-12.0,-37.0
93762.0,0.553345,-0.854858,-0.074707,8.361816,-6.04248,-1.953125,-1.0,-12.0,-37.0
93792.0,0.542725,-0.86438,-0.062622,5.065917,-6.958007,-3.540039,-1.0,-12.0,-37.0
93823.0,0.533203,-0.852661,-0.059448,3.723144,-5.187988,-4.211426,1.0,-12.0,-41.0
93854.0,0.534058,-0.875244,-0.053833,3.479004,-5.004883,-3.845215,1.0,-12.0,-41.0
93885.0,0.536987,-0.867065,-0.047974,3.540039,-8.728027,-5.737304,1.0,-12.0,-41.0
93917.0,0.512817,-0.867676,-0.047363,4.333496,-8.911133,-4.333496,2.0,-13.0,-33.0
93948.0,0.505615,-0.880737,-0.056274,2.380371,-3.784179,-2.624511,2.0,-13.0,-33.0
93978.0,0.52417,-0.873169,-0.051025,0.854492,-1.708984,-0.793457,2.0,-13.0,-33.0
94010.0,0.508057,-0.875122,-0.047852,-0.183105,-1.953125,-0.183105,1.0,-13.0,-35.0
94041.0,0.507324,-0.868286,-0.044189,0.366211,0.427246,1.342773,1.0,-13.0,-35.0
94072.0,0.523071,-0.870239,-0.049072,1.770019,2.746582,3.112793,1.0,-13.0,-35.0
94103.0,0.544189,-0.854736,-0.056274,3.295898,0.244141,2.197266,1.0,-12.0,-38.0
94134.0,0.533936,-0.867065,-0.055298,4.02832,-3.356933,1.770019,1.0,-12.0,-38.0
94164.0,0.523193,-0.856323,-0.063843,3.784179,-0.12207,0.488281,1.0,-12.0,-38.0
94195.0,0.539062,-0.863159,-0.072754,1.953125,2.075195,0.0,3.0,-12.0,-32.0
94225.0,0.543701,-0.859375,-0.067261,0.732422,-0.610352,-2.01416,3.0,-12.0,-32.0
94255.0,0.526123,-0.86438,-0.066406,0.305176,-2.624511,-1.831055,3.0,-12.0,-32.0
94285.0,0.528809,-0.861572,-0.067627,-0.488281,-1.037598,-1.647949,3.0,-12.0,-32.0
94317.0,0.533203,-0.867432,-0.063965,-1.037598,-0.793457,-1.464844,0.0,-11.0,-35.0
94348.0,0.522095,-0.868042,-0.056396,-0.976562,-3.173828,-1.647949,0.0,-11.0,-35.0
94380.0,0.528687,-0.864624,-0.061035,-1.647949,-3.540039,-1.220703,0.0,-11.0,-35.0
94412.0,0.524048,-0.865356,-0.056274,-1.037598,-2.807617,-1.770019,3.0,-11.0,-38.0
94443.0,0.522095,-0.870117,-0.048218,-1.586914,-4.02832,-0.061035,3.0,-11.0,-38.0
94474.0,0.509033,-0.859497,-0.043945,0.305176,-2.075195,2.380371,3.0,-11.0,-38.0
94505.0,0.513794,-0.861328,-0.042725,4.272461,2.929687,-0.915527,3.0,-12.0,-37.0
94536.0,0.535034,-0.860107,-0.05127,4.699707,1.281738,1.831055,3.0,-12.0,-37.0
94566.0,0.526489,-0.866211,-0.061035,6.286621,-3.051758,1.89209,3.0,-12.0,-37.0
94598.0,0.502563,-0.876465,-0.064087,6.652832,-2.380371,1.037598,3.0,-13.0,-39.0
94629.0,0.519287,-0.866333,-0.078857,4.02832,3.845215,3.723144,3.0,-13.0,-39.0
94659.0,0.546021,-0.859009,-0.077148,0.915527,7.080078,3.601074,3.0,-13.0,-39.0
94690.0,0.547119,-0.857544,-0.075195,-0.488281,3.90625,0.915527,3.0,-13.0,-36.0
94721.0,0.541626,-0.862427,-0.077026,-0.976562,-0.610352,-0.854492,3.0,-13.0,-36.0
94752.0,0.524658,-0.867676,-0.070312,-1.831055,-1.770019,-1.159668,3.0,-13.0,-36.0
94784.0,0.518555,-0.862915,-0.068115,-2.258301,1.159668,0.0,1.0,-11.0,-35.0
94815.0,0.533325,-0.864502,-0.064941,-1.89209,2.563476,0.183105,1.0,-11.0,-35.0
94845.0,0.534546,-0.859253,-0.067993,-2.258301,0.915527,-0.366211,1.0,-11.0,-35.0
94876.0,0.530151,-0.86084,-0.064209,-1.342773,-1.159668,0.183105,1.0,-11.0,-35.0
94907.0,0.5271,-0.864868,-0.067871,-0.671387,-1.525879,-0.12207,4.0,-13.0,-36.0
94938.0,0.524414,-0.862915,-0.065063,-0.793457,-0.549316,0.366211,4.0,-13.0,-36.0
94968.0,0.53125,-0.86145,-0.067017,-1.342773,0.732422,0.427246,4.0,-13.0,-36.0
95000.0,0.533691,-0.86145,-0.066162,-1.647949,-0.061035,-0.244141,0.0,-12.0,-34.0
95031.0,0.530273,-0.863281,-0.065063,-1.831055,-0.915527,-0.488281,0.0,-12.0,-34.0
95061.0,0.527344,-0.862549,-0.064697,-2.075195,-0.183105,-0.305176,0.0,-12.0,-34.0
95092.0,0.529419,-0.86377,-0.062378,-2.258301,0.244141,-0.183105,1.0,-14.0,-37.0
95123.0,0.527954,-0.864258,-0.061646,-2.01416,0.12207,-0.244141,1.0,-14.0,-37.0
95154.0,0.53064,-0.861572,-0.061768,-1.953125,0.0,-0.12207,1.0,-14.0,-37.0
95186.0,0.530884,-0.863159,-0.061279,-1.770019,-0.366211,-0.12207,1.0,-13.0,-43.0
95217.0,0.531494,-0.863892,-0.061035,-1.89209,-0.671387,-0.732422,1.0,-13.0,-43.0
95248.0,0.523437,-0.864136,-0.057617,-1.89209,-0.488281,-0.671387,1.0,-13.0,-43.0
95279.0,0.53125,-0.864136,-0.060547,-1.953125,-0.244141,-0.305176,2.0,-10.0,-39.0
95310.0,0.526978,-0.863892,-0.055664,-1.953125,-0.793457,-0.732422,2.0,-10.0,-39.0
95341.0,0.527222,-0.865723,-0.056641,-2.13623,-0.732422,-0.366211,2.0,-10.0,-39.0
95373.0,0.526611,-0.865723,-0.056274,-2.319336,-0.549316,-0.488281,1.0,-11.0,-38.0
95404.0,0.526123,-0.865601,-0.052002,-2.197266,-0.244141,-0.488281,1.0,-11.0,-38.0
95435.0,0.525146,-0.864868,-0.052246,-2.075195,-0.244141,-0.366211,1.0,-11.0,-38.0
95466.0,0.527344,-0.863159,-0.053955,-1.831055,0.12207,-0.366211,1.0,-11.0,-38.0
95498.0,0.528442,-0.866089,-0.05188,-1.525879,-0.488281,-0.305176,4.0,-11.0,-42.0
95529.0,0.524048,-0.863525,-0.049683,-1.342773,-1.220703,-0.549316,4.0,-11.0,-42.0
95560.0,0.524048,-0.867676,-0.052856,-1.342773,-0.793457,-0.183105,4.0,-11.0,-42.0
95592.0,0.523437,-0.866333,-0.049072,-1.647949,-0.061035,-0.366211,2.0,-11.0,-36.0
95623.0,0.524414,-0.864624,-0.046875,-1.586914,0.366211,-0.12207,2.0,-11.0,-36.0
95653.0,0.52832,-0.867798,-0.049438,-1.220703,0.244141,0.0,2.0,-11.0,-36.0
95684.0,0.524536,-0.863403,-0.045532,-1.098633,-0.183105,-0.305176,1.0,-11.0,-37.0
95715.0,0.524536,-0.866089,-0.047607,-0.549316,-0.305176,0.0,1.0,-11.0,-37.0
95745.0,0.523437,-0.86792,-0.047729,-0.427246,0.0,0.061035,1.0,-11.0,-37.0
95776.0,0.523071,-0.864136,-0.046387,-0.366211,0.366211,0.061035,1.0,-13.0,-36.0
95807.0,0.528076,-0.866577,-0.049316,-0.061035,0.549316,0.366211,1.0,-13.0,-36.0
95837.0,0.526367,-0.865356,-0.048462,0.0,-0.12207,-0.061035,1.0,-13.0,-36.0
95868.0,0.523804,-0.866333,-0.049438,0.183105,0.0,0.244141,1.0,-10.0,-40.0
95899.0,0.524536,-0.866821,-0.049438,-0.061035,0.427246,0.366211,1.0,-10.0,-40.0
95929.0,0.526245,-0.866577,-0.050903,0.0,0.366211,0.366211,1.0,-10.0,-40.0
95960.0,0.527466,-0.866577,-0.049683,-0.183105,0.183105,0.244141,0.0,-19.0,-38.0
95991.0,0.528198,-0.865479,-0.050537,-0.366211,-0.244141,-0.061035,0.0,-19.0,-38.0
96022.0,0.523804,-0.866089,-0.050659,-0.610352,-0.061035,-0.061035,0.0,-19.0,-38.0
96053.0,0.52478,-0.866699,-0.049316,-0.549316,0.427246,0.061035,0.0,-19.0,-38.0
96084.0,0.525391,-0.865967,-0.048706,-0.366211,0.366211,0.12207,4.0,-12.0,-37.0
96115.0,0.52771,-0.867065,-0.049438,-0.366211,0.183105,0.12207,4.0,-12.0,-37.0
96146.0,0.525635,-0.867676,-0.049927,-0.610352,-0.549316,0.061035,4.0,-12.0,-37.0
96178.0,0.521484,-0.864868,-0.049438,-0.793457,0.061035,0.12207,2.0,-12.0,-37.0
96209.0,0.526733,-0.868042,-0.050049,-1.098633,0.915527,0.183105,2.0,-12.0,-37.0
96239.0,0.528809,-0.865601,-0.048218,-1.037598,0.305176,-0.061035,2.0,-12.0,-37.0
96270.0,0.525513,-0.86499,-0.046997,-0.671387,-0.183105,-0.061035,1.0,-11.0,-41.0
96301.0,0.525024,-0.865967,-0.047363,-0.610352,-0.061035,0.0,1.0,-11.0,-41.0
96332.0,0.525024,-0.865601,-0.047363,-0.427246,-0.061035,-0.12207,1.0,-11.0,-41.0
96364.0,0.524292,-0.867065,-0.04895,-0.366211,0.0,0.305176,2.0,-13.0,-33.0
96395.0,0.526855,-0.863281,-0.050293,-0.549316,0.488281,0.12207,2.0,-13.0,-33.0
96425.0,0.537842,-0.87085,-0.046875,-0.793457,-0.915527,0.0,2.0,-13.0,-33.0
96456.0,0.51001,-0.866089,-0.045776,-0.366211,-2.01416,-0.671387,1.0,-12.0,-39.0
96487.0,0.523193,-0.865601,-0.049072,-0.732422,2.01416,1.220703,1.0,-12.0,-39.0
96517.0,0.532349,-0.86853,-0.045898,-0.610352,0.976562,-0.061035,1.0,-12.0,-39.0
96547.0,0.521851,-0.862305,-0.046753,-0.12207,-0.061035,0.244141,1.0,-12.0,-39.0
96578.0,0.526855,-0.869873,-0.047852,-0.061035,0.12207,0.488281,0.0,-17.0,-39.0
96609.0,0.527466,-0.86377,-0.047729,0.061035,-0.854492,0.061035,0.0,-17.0,-39.0
96639.0,0.521973,-0.868652,-0.049561,-0.12207,0.12207,0.488281,0.0,-17.0,-39.0
96671.0,0.525513,-0.866699,-0.048584,-0.549316,1.098633,0.061035,1.0,-14.0,-37.0
96702.0,0.526855,-0.866089,-0.049194,-0.244141,0.732422,0.366211,1.0,-14.0,-37.0
96732.0,0.527466,-0.866211,-0.047241,-0.488281,0.244141,0.061035,1.0,-14.0,-37.0
96763.0,0.525391,-0.866211,-0.047729,-0.12207,-0.244141,0.12207,2.0,-10.0,-37.0
96794.0,0.526245,-0.865356,-0.048584,-0.305176,-0.183105,0.244141,2.0,-10.0,-37.0
96825.0,0.524414,-0.866333,-0.047607,-0.427246,0.488281,0.244141,2.0,-10.0,-37.0
96856.0,0.527588,-0.864624,-0.048218,-0.305176,0.610352,0.244141,1.0,-14.0,-39.0
96887.0,0.52771,-0.86499,-0.047241,-0.183105,0.061035,0.12207,1.0,-14.0,-39.0
96917.0,0.526367,-0.865967,-0.049316,0.12207,-0.061035,0.183105,1.0,-14.0,-39.0
96948.0,0.526611,-0.865845,-0.050537,-0.061035,-0.12207,0.0,1.0,-13.0,-41.0
96979.0,0.526978,-0.866699,-0.050537,-0.366211,0.0,-0.061035,1.0,-13.0,-41.0
97009.0,0.525757,-0.866333,-0.047974,-0.549316,-0.12207,-0.061035,1.0,-13.0,-41.0
97041.0,0.525146,-0.866333,-0.048218,-0.488281,0.244141,0.061035,2.0,-13.0,-37.0
97072.0,0.527344,-0.865967,-0.049072,-0.488281,0.549316,0.183105,2.0,-13.0,-37.0
97102.0,0.52832,-0.864136,-0.048584,-0.488281,0.061035,0.0,2.0,-13.0,-37.0
97132.0,0.523804,-0.866455,-0.048462,-0.427246,-0.549316,-0.12207,2.0,-13.0,-37.0
97164.0,0.524048,-0.867187,-0.049927,-0.488281,0.0,0.183105,0.0,-13.0,-41.0
97195.0,0.528931,-0.866577,-0.050537,-0.915527,0.183105,0.061035,0.0,-13.0,-41.0
97225.0,0.527344,-0.865234,-0.050415,-1.220703,-0.366211,-0.244141,0.0,-13.0,-41.0
97257.0,0.525269,-0.866211,-0.046021,-1.281738,-0.366211,-0.305176,1.0,-14.0,-37.0
97288.0,0.524292,-0.865967,-0.046143,-1.159668,0.0,-0.183105,1.0,-14.0,-37.0
97319.0,0.524536,-0.866943,-0.046997,-0.976562,0.366211,-0.061035,1.0,-14.0,-37.0
97352.0,0.526245,-0.864868,-0.045044,-0.976562,0.244141,-0.12207,1.0,-12.0,-37.0
97383.0,0.525879,-0.867432,-0.046753,-0.793457,-0.183105,0.061035,1.0,-12.0,-37.0
97413.0,0.525513,-0.866577,-0.046143,-0.915527,-0.366211,-0.061035,1.0,-12.0,-37.0
97445.0,0.525269,-0.866333,-0.046021,-1.098633,-0.183105,-0.061035,0.0,-11.0,-35.0
