timestamp,accelX,accelY,accelZ,gyroX,gyroY,gyroZ,magX,magY,magZ
0.0,-0.049722788869488964,-0.0740726812543817,-1.004664088501041,-0.02798752624499238,0.2606264793864574,0.6965818202905462,25.345091481742603,-13.090430080290972,9.296623367367223
10.0,0.08771482945305509,0.022127714848140856,-1.035276558215804,-0.08174435543527295,-0.01765325686051363,0.12803304335358565,24.32031720204915,-11.33205037392262,8.003434462405755
20.0,0.0814638621266434,-0.02920580872806537,-0.7991263574846722,0.00790412094472541,0.35788284149514527,-0.23203621473692476,25.055188675833737,-11.893286828034789,7.946367112528328
30.0,0.12695346877227998,-0.068067509917345,-0.9092411083219729,-0.23229700248702168,-0.23952879773824723,-0.6672462763329235,23.212504365309815,-11.984677913026976,8.671307268577547
40.0,0.10764017796513994,0.033808848516688327,-0.9457684365298612,0.10635426343529032,-0.14537636845147184,0.4525578365715419,25.01424707076471,-11.110266240269883,8.318222749312604
50.0,0.1582546281892787,0.03840992603585191,-0.9527683258031541,0.09652482921608072,0.022629933405419106,-0.05284007242801407,26.000254454519094,-12.405053841184323,8.70733673688845
60.0,0.04498683387133692,0.022116032708543277,-0.9545533177430685,0.44115811224773527,0.26661829970387135,-0.41942293433453215,24.659586203433722,-12.037657320827995,7.800605610663996
70.0,0.22533373133482598,-0.07271440502957226,-0.8286363326018321,0.49987345445618137,0.062157739319910976,-0.08022788473940262,25.416071088697155,-10.697604224313364,8.584611435695164
80.0,0.1828887739490718,-0.042702171173152045,-0.9588830962682241,0.0951988686192547,0.288488295822389,0.5022661653558247,24.246399228726066,-11.530449666802696,7.398647604320603
90.0,0.16850133888438332,-0.04015031426582124,-0.8539448237340435,0.29444943959011943,0.39865417667607134,0.5022191552059437,25.228105972683576,-12.137555995761113,7.268199596413181
100.0,0.20238733698027256,-0.0018446833916938522,-0.9471265086726043,0.6079917464258577,0.4331893563250812,0.5133569624870657,24.671720840870023,-12.358540976526632,7.723876628652216
110.0,0.16976710677837975,0.011587628485796198,-0.8138902010820217,0.07591417221973035,0.39110985705515994,-0.13078071152806525,25.045410442456888,-11.727092727220098,6.388221507947678
120.0,0.23760521745042493,-0.021497945769983297,-0.848626690764111,-0.11621235434911759,0.1959811707180384,0.1592795631539339,25.138091612919524,-10.086303561367732,7.998543088993528
130.0,0.22300625711718536,-0.04355702171300041,-0.7953919149750328,0.20771678905747434,0.23975568675681172,0.044213341297124786,25.395579955126404,-12.545276041190611,9.292553556478492
140.0,0.11206556068825343,-0.02368956389552528,-0.7911051555176163,0.2314217417838791,0.3648857402224031,1.3138425198865678,24.362425551213576,-13.640562189184203,6.441834616762932
150.0,0.14881974312055074,0.007578225180094287,-0.9209643401400783,0.647025529021994,0.3675344688468928,0.8708916992930702,24.562006958220017,-11.375051445684246,7.485772265361721
160.0,0.15049836335590627,-0.045947211648595165,-0.7844320368805651,0.48363806718064,0.2755848924133579,0.056033264893998375,25.512116929117237,-11.19039515021566,7.675516901379597
170.0,0.3163259750223766,-0.041261895630277295,-0.7941343793284578,0.4775783879416197,0.34349832173608796,0.49062474940750544,26.168170220441166,-11.34938080744114,7.273378394962293
180.0,0.2234765520764913,-0.04010449853782874,-0.8219440568160581,0.2212774885737125,0.5458132600910295,-0.39742058951961867,24.639282958186726,-11.425998544632312,6.75503366085577
190.0,0.21346486071806636,0.022259690425958732,-0.8198154341319629,0.36184835745210214,0.061321554931616395,0.20800754802341775,25.087269883667005,-12.55240829175704,6.517315130194766
200.0,0.24686842801074851,-0.05744143229642711,-0.8852813054340596,0.34781035714809805,0.45738389510890065,0.030072336911652564,25.498826391235223,-12.02346503388626,9.839950444215614
210.0,0.16567384746220923,0.04868140375962918,-0.9299827447056218,0.3072879565923554,0.2389590218617246,-0.3468354576687159,25.725723265648394,-14.466836404093247,6.904725127281811
220.0,0.06765241369128183,-0.004345890333859743,-0.8431465368867177,0.09864891932536715,0.11818389228725398,-0.9611930343962822,24.56368558100742,-13.19115814638329,8.602862248897004
230.0,0.010034754548052804,0.0016505029328244027,-0.9891228602542833,0.1037428557719504,0.4098866168613541,-0.1861525417516801,25.659626299774423,-13.104592881056316,7.140138808854751
240.0,0.10211272999966566,-0.016408345186804393,-0.9798491153150074,0.0318422031298289,0.47851787701798665,-0.0068590368737392465,25.19130941075167,-10.640606760992341,8.317777141160958
250.0,-0.01398584262408846,0.02291070698405309,-1.011099436739335,0.6166677000832096,0.2154154234579536,0.55228129593771,25.14169270772913,-12.457107517823607,8.286378955714579
260.0,0.06539000534067073,0.03737964183492388,-1.001463331781088,0.3367389837018393,-0.07011959201289975,-0.28296197044082916,23.80931066396346,-11.524214792024985,9.279353206082105
270.0,-0.00596343008907875,-0.0009579204390505697,-0.9735802361669263,0.2766942375078649,-0.028252566284856173,-0.08156620553407064,25.614906245589754,-13.84312336571253,7.354147112153407
280.0,-0.059001557754081904,0.007506452324419164,-0.9974241898402706,0.06414371540193767,0.1639630482869894,0.02969631689657368,25.51134181060936,-10.524059352638353,6.656103075397176
290.0,0.007302482982819971,0.028959419389414494,-1.0722302709294578,0.016276082399214558,0.20744793072491619,-0.035109649647383966,24.913963447705463,-11.364224892436965,6.826810232446105
300.0,0.011021025285012712,-0.03923685782974512,-0.9414738335632479,0.2810516838104299,-0.3706324245198743,-0.3193040758211324,26.678386211197754,-10.905267205220358,7.8225971626420945
310.0,-0.05366890005685415,0.06225449008007834,-0.9371756096381626,-0.32945578886794247,0.08278207564720656,-0.1392103410721918,25.459121301507757,-11.579644554277793,8.12975664293787
320.0,-0.10936330256387519,-0.09696769802651002,-1.0080405076455972,-0.02688839918085499,-0.23893859134604595,-0.5622934600799631,24.517196247476676,-11.36804779065787,8.22256337215076
330.0,-0.11238733330452234,-0.0505869268718143,-0.9604150296463968,0.2060709014125748,0.23853859731036475,-0.20648938273871,25.174024681206706,-12.172410543295754,5.986726317107448
340.0,-0.12610612286678802,-0.10715049903544056,-0.9139018617817225,-0.05694035643549339,-0.2646754778162601,0.4871572922573495,25.136518869918234,-11.513599057317958,8.57325720551729
350.0,-0.08454257058081817,-0.0032170538976968584,-0.8971978905617983,-0.1910462542675253,-0.048575066368020475,-0.005571586168971326,24.374599362178085,-11.951621244636634,6.611425450460581
360.0,-0.24886549586310194,-0.03152600621960642,-0.8952696116769285,0.16607062897451733,-0.4486561340475058,-0.38356497583132654,24.48337527172647,-12.58437424296634,8.037065732860405
370.0,-0.08072200562257956,-0.012977174768875286,-0.9284162718005854,-0.1069558587448641,-0.39018649889596474,0.2723022268244683,25.2355153500608,-11.908277523153718,8.549991633198903
380.0,-0.10910844033580053,-0.029566714545931894,-0.955658440470914,-0.11448730703722693,-0.17668364861598176,-0.21350116397666086,24.26863749495666,-11.77597656505622,9.25984578962175
390.0,-0.15673733947997975,0.05760989847042469,-0.8636977810365083,-0.1389971561386891,-0.24165654996026983,0.43498035611428837,24.434099343727883,-12.05504565187815,8.411019456020938
400.0,-0.1190213211047794,-0.010057764724224592,-0.8392034488196265,-0.3060473622700141,-0.2497941869101974,-0.7843717578417981,25.10251581933224,-12.85496351595651,8.24380712339255
410.0,-0.12744800074453735,0.01075417486767379,-0.9575841576712346,-0.3507822000265317,-0.5431260610758497,-0.25071316201338667,25.068849372148417,-12.77425380517293,7.808432156946335
420.0,-0.20215201146070755,-0.0064596878364520305,-0.9267478774208411,-0.5425134782497159,-0.4712411852162386,0.5575258645636695,24.991280208616427,-13.699599980284244,8.118920755260916
430.0,-0.1935756333981123,0.05515127997511528,-0.9474501552293144,-0.13132999788370198,-0.44524851503829405,-0.07180872970053928,23.064400940622296,-12.254083815334393,7.810732339199205
440.0,-0.17638709193326738,-0.04855672293385177,-0.7537936831225817,-0.002372284932852242,-0.4489833547159355,-0.06865536273622863,25.741975058543936,-11.969809279315315,6.803840014652927
450.0,-0.11873882025926148,-0.021478569627086594,-0.7303605761971468,-0.3787466905793804,-0.5974270113680182,0.14668933281225183,24.9610635540778,-10.73623010416476,8.116186282319696
460.0,-0.13363034302470173,-0.020445087063350215,-0.9123451690547455,0.04328535328897337,-0.6412424499264531,-0.6684957816842704,25.33872390758261,-12.115010936040138,7.518190401778458
470.0,-0.16649293469231433,0.10329317379226738,-0.8382647038333791,-0.3475963073846194,-0.33562344383259207,0.1349883212844837,25.78571093855506,-13.01170937531819,8.519396536687108
480.0,-0.14482577651263462,0.06377672252001053,-0.8570407028102477,-0.453300826985914,-0.5253529829800749,-1.1850838419280967,26.246081695274047,-11.165937637935336,6.995252198432363
490.0,-0.125653914884824,-0.014913880028798244,-0.912855355035382,-0.41523809935704364,-0.3382407092035206,-0.357444477422539,26.166619641629364,-10.29606331548254,7.127686112191635
500.0,-0.10116161177606355,-0.125484020801319,-0.8775516654379446,-0.17179606633190433,-0.23685189017893607,-0.3035538884969321,23.97004035580607,-11.81175466493676,7.771967256585116
510.0,-0.11626711806332791,-0.08220765584682645,-0.9721234855707257,-0.5468397834369711,-0.3269472697895506,0.025957200078209203,25.003903121281752,-11.97832347364775,8.491492463486544
520.0,-0.18607003276121833,-0.07005027723407849,-0.9895966505934244,-0.09384780937151155,-0.11382569470440396,-0.04641460257268472,25.63821135174349,-11.380885047543297,8.76521325027261
530.0,-0.09107849576525269,0.06489458446985691,-0.9657681606537529,-0.391313742698011,-0.07294184636434742,-0.024148499306479276,24.443558379254334,-12.982806241985946,6.32750413710995
540.0,-0.10766559006462413,-0.03413377606875016,-1.0084436873484512,-0.23407631248533084,-0.478053414381596,0.1633580947909201,25.71975811210531,-13.361833451177183,5.849627333510954
550.0,-0.03061074589315471,-0.024386573750147883,-0.9038743769296922,-0.38210157863445754,0.10730430557248292,0.39272464989792916,25.567975040697686,-10.868477492727838,9.221742468036888
560.0,0.006392353406864559,0.03112029238216797,-0.9399540804411471,-0.23097177060930565,-0.07273657731746934,0.3014432044076156,27.202621860795077,-12.13553962411423,7.935209055684123
570.0,-0.013230630418831575,-0.03680255965003721,-0.9445607271982437,-0.07724823150187408,-0.1358573057061942,-0.3503432570450004,24.9329693359722,-10.785979838333189,7.346543616319506
580.0,-0.004849226767083166,0.05444445279101169,-0.9885833612042009,-0.24055012315260735,0.04313720368739078,-0.40322271092030687,26.424954074282688,-11.407384507503178,7.466724613961423
590.0,0.026907617907099623,0.0277517786578219,-0.991239560157657,0.15528896039543622,0.16157398518424887,-0.09337663366281358,26.145056356579328,-11.804272537173933,7.725476602322567
600.0,0.05610716855987111,-0.006061575604160231,-0.9779765807502574,0.20565564834363975,0.2136770846108923,0.20025469752684835,23.907983286952298,-12.43314092780898,6.710169176459295
610.0,0.1305494034975762,-0.010172149389303572,-0.9254455075690039,0.1486601596053768,0.38466053933819,-0.4800437903157363,25.543280206242997,-12.185671479817866,8.913223554166883
620.0,0.04662776669936723,0.10035640364945381,-0.8764950979980408,0.384145223175814,0.19194542996677535,0.45630074322103675,25.668839217030975,-11.874613793507326,6.893095449882943
630.0,0.09413581042262378,0.06956276820627202,-0.9521771511148033,-0.25451350306762965,0.16343401759118384,-0.10716423687905277,23.6827233272014,-10.764183813227243,7.382952574340267
640.0,0.08274535119650155,-0.010651488528350518,-0.9905108192348189,0.0576336429290171,0.49470632294447126,-0.6872377717200209,26.018554005474712,-12.353272763006427,6.713222328340839
650.0,0.1782820675746454,0.003926274269764536,-0.9495332645149279,-0.04558135827295187,0.41552186483216635,0.33157602854839,24.2489232949561,-12.858819033273758,8.730237639678469
660.0,0.1484360601397432,-0.051844344373174624,-0.8799921825396834,0.2746758116305871,0.5515714881034866,0.3152955863857791,26.851633749981808,-14.68738344720604,9.93494786546511
670.0,0.10053073909806558,0.03736225129760524,-0.8820994412300687,0.2887144816095387,0.09899510749833387,-0.21906612974791206,24.902748624168947,-9.502554754300574,6.798071252900696
680.0,0.15491937026582098,0.04626649799492573,-0.8516159821242064,0.2807520057873944,0.36663502434027795,0.7005306028820165,25.087793871753927,-12.371709757918108,9.731073191701606
690.0,0.11648274497413343,-0.04378402670745639,-0.8553716154513111,0.22633116879700066,0.3043867107316023,0.24908227418349332,26.320260212764122,-11.530792023078195,9.282600958492814
700.0,0.21180286525230663,-0.033835838845573014,-0.8766940601433361,0.21123362266224427,0.5891727979766492,0.5496347779289403,26.63498582161568,-11.908333030039348,8.260485917889422
710.0,0.1966361305079393,0.10548270206965416,-0.8573823432094836,0.4429363525823891,0.4864388896829702,0.7493010830018101,24.93431261288514,-12.630158631631033,7.47702506320859
720.0,0.16088229158338696,-0.01923410299747627,-0.8702477287072212,0.4689136476416318,0.23792673688972937,0.8169794097594723,24.222488869869746,-10.929731769937092,8.655765086522944
730.0,0.22597072927060846,-0.05263457325944387,-0.8606865306275138,0.5474993540446234,0.3453746372095662,1.053152249009818,25.889236524358125,-10.652240764742968,9.39483162926003
740.0,0.2068756549253999,0.1248097807662874,-0.8863889654546184,0.1495833378488474,0.46029211389519264,-0.4372612763633972,23.407869827396475,-11.746363105943765,8.128407275271135
750.0,0.1981554278130326,0.03901108991421823,-0.8186823451426971,0.3304552808271992,0.3622951557260331,-0.3155572113745132,25.475130083176175,-12.035828704227029,6.727260404553416
760.0,0.2050489166689976,0.023638769090581366,-0.8512500801510527,0.17152011422407906,0.507337734445011,0.6844437528084346,24.365429661139466,-12.06222344988382,7.416656784214468
770.0,0.2172454671722714,-0.018813230031530005,-0.980676096920511,0.3733216390371123,0.35193896397868496,0.37782800231759006,25.278953099147195,-10.01251726591863,7.557607717727293
780.0,0.18975163325591407,-0.04864133991448277,-0.9574322336600147,0.3008960910272045,0.5244256654852746,-1.1878171900115515,24.339911717954188,-12.087627722389627,10.078045519531752
790.0,0.1807914571422049,-0.053308130392733535,-0.917274317911672,0.31538532667708535,0.28628807039624754,0.07039041551104362,26.023445807801842,-12.0631385775057,7.745313920495761
800.0,0.10896785927574995,0.03024620295387495,-0.9080244041969766,0.22590694776357428,0.258534229159328,0.5194175393997377,25.29964287060136,-11.687798785468141,8.527875156049964
810.0,0.10035446257206877,-0.04679961472715952,-0.985415482596654,0.36548372728583906,0.5759714139997132,0.838520503361041,23.507257045095603,-13.348027485381614,8.077355731463454
820.0,0.0818579368829459,-0.011053735232150641,-0.9516186599504203,-0.03502478672948775,0.3704363662512936,-0.47661922902686726,23.686658912263354,-10.630584504988619,7.674176480986052
830.0,0.07217677987230997,-0.0054704544316378926,-0.8658433199094426,0.3391319023742635,-0.03623015794664092,0.901211528679568,26.709810951721874,-11.688731415225094,7.280314236460631
840.0,-0.0044496934627947515,-0.023923326687763882,-0.9567342701191162,-0.08844676574756574,0.1196386329968549,0.5553153911550259,25.4236952756272,-13.545103533805465,8.944077728566459
850.0,-0.045752876634393556,-0.0019348545896054389,-1.031573935452724,0.36105504460194343,0.19005363537061326,-0.8273895293781504,25.6061821646043,-11.273356006467433,7.783502518306748
860.0,0.017859958337889247,0.02198906663354923,-0.974247834387708,-0.1136827629249731,0.15714639712054537,0.026836560008013585,24.67279365281712,-11.065703749866968,7.732113790286283
870.0,0.015482960212945568,-0.014080427604910382,-1.0788080839016838,-0.13589635769645014,0.012085671275619492,-0.3038185847368672,24.824017873152293,-11.91526867683859,9.127339070871827
880.0,-0.10931615699610953,-0.08375025230282927,-0.9814448855579502,-0.08563074635828993,0.1348809614849863,0.3688524734982835,25.349762086915366,-12.370957153048789,6.231376109109533
890.0,-0.05409406739135092,-0.136508107483035,-0.9962733206614212,-0.05097080435298617,-0.04004109251816958,0.49215897084906257,25.94988229448455,-12.284505029702434,7.770752325562106
900.0,-0.04305350899375727,0.041579468650377156,-0.9063736716888907,0.33101086011154807,-0.12160767922227689,-0.24169202720352306,25.883140812126168,-10.40165372374959,6.805886841754611
910.0,-0.08330971003224488,0.031912908720400625,-0.814547756087376,-0.045641882325191535,0.09987737036749994,0.27821150926390503,25.88198108696634,-13.936136357264262,6.8193442769939985
920.0,-0.10589392718254585,-0.01802470604013629,-0.9520852093793596,-0.23689917221210754,-0.3096710090509993,-0.04020876291139319,26.94474227921381,-10.881374919172133,7.0947457036667245
930.0,-0.17372997622957248,0.03014797498923326,-0.8841207128382983,-0.03571944900609278,-0.1484793520081265,-0.6572222934328495,25.182042742043027,-11.2282971670028,7.56614118354055
940.0,-0.05363288624998816,-0.021053001639971695,-0.8869648313554612,-0.2358976885604672,-0.379929893168986,-0.6731304394900159,25.60164157452849,-11.77045845807903,7.482380921524443
950.0,-0.1486023818697579,-0.0072606040389227595,-0.9335311403347006,0.2193368047886308,-0.15040569390378178,-0.5301170202339305,26.010321472491178,-12.217274771851198,8.754241854955882
960.0,-0.19643942657425362,-0.04938749605474003,-0.8893385070392368,-0.1347668938741747,-0.26084446625809676,-0.5531803438436647,25.677388454015123,-11.036991045472416,7.186809294465023
970.0,-0.20179209124232422,0.04452746529713527,-0.8776494178547718,-0.07012147452743075,-0.27797036145964554,0.11690083294373796,24.051486815859057,-12.578092716544854,7.690492163522205
980.0,-0.2745600973132732,0.012266652143938307,-0.7881753276906184,-0.3419137851243981,-0.5550011255454564,-0.35145760321738184,25.726160230055253,-11.796915972544703,8.23439353117186
990.0,-0.20832678809227737,-0.0032436813639376404,-0.6921226728358058,-0.47330705014457947,-0.33715880756295113,-0.5698694650631577,23.625674910400093,-12.012198827971254,7.704801517201492
1000.0,-0.2596705259831147,0.054903379027508185,-0.8981229127423013,-0.2782847700905173,-0.5288240965930998,-0.8494673410601348,24.4838052830152,-12.074372577847836,7.032587458889276
1010.0,-0.25819512421793894,-0.0654211628055975,-0.8489405833462953,-0.39369348885293404,-0.7659805375728359,-0.6305097037669417,23.951094490898196,-13.049280173343389,9.174463221175792
1020.0,-0.17496071458616355,0.04210325160960141,-0.9608316709410158,-0.3918473410264352,-0.2176464849136846,-0.16681812772315077,25.17484977739593,-12.528579353558333,7.593570020614522
1030.0,-0.04283134146417317,0.023701515747730263,-0.8538829594808197,-0.5630705247271479,-0.33401180127441993,-0.5061971545506341,25.42085192034616,-13.286415391226667,7.122643551646362
1040.0,-0.2531789873247893,-0.053584255925558766,-0.9511255206571313,-0.5654988079744967,-0.7514446214685694,-0.0803513371377351,24.818798475032363,-10.995823592777327,7.554155990094908
1050.0,-0.090620279063194,-0.07004715077450861,-0.8466412970027877,-0.06503921053847203,-0.4177581493686873,-0.6265568086064788,25.166609105923648,-11.431271558202143,8.610057626154608
1060.0,-0.21798589159030507,0.10441042084287783,-0.9415691416111732,-0.14687996825947303,-0.34146813983635815,-0.3127295754881655,23.559797914483916,-12.441968694938192,7.308573342671187
1070.0,-0.17895748742432685,0.0795460008982843,-0.8492412879687316,0.035368590620541124,-0.37427247151466986,-0.4448271181953992,24.40747626188922,-12.874647873990526,6.791660590912358
1080.0,-0.13393735600919882,0.003960054017115469,-0.8931214442009587,0.21646285606410728,-0.3333770893603092,-0.0703548228814826,25.9730354052073,-11.190537548930903,7.057781009231505
1090.0,-0.20309982284699873,0.013236058976702417,-0.9837319352294266,-0.2697406487176697,0.04570096033436499,-0.5509840094471177,24.880190636002897,-11.683649131621555,7.264688617427762
1100.0,-0.1200388602937657,-0.004462285725313294,-0.8521423431965309,-0.3632463057235649,-0.1413236214924423,0.4515841369377861,26.176323866171696,-12.051509282996435,8.605209160262696
1110.0,-0.1451861292413496,0.06837051142718611,-0.9803498364597648,-0.0013414742607886776,-0.11735281585233417,-0.3500630006071883,24.84642206655128,-10.613916683970613,8.729432114474232
1120.0,-0.10244714574033317,-0.020964769586173184,-0.958438372603647,-0.5334412227022218,-0.16548821354731194,0.1990511338530464,25.431925780277936,-12.604945925982559,8.893354668413355
1130.0,-0.04887028085653896,0.10875260330866579,-0.9969860443382573,-0.07464288370289075,0.24220206528680632,0.29950930632570794,25.07166967771597,-11.445747360221269,6.561047127467955
1140.0,-0.08291488053579066,0.03580140188593372,-0.8945958474562629,-0.17819025995318563,0.024112218207478123,0.7652277838931492,24.228506271968712,-12.066649569370599,7.805224783189693
1150.0,-0.020964762221433193,0.0013630367049617543,-1.1252331412512608,0.051384138113362156,-0.012070211047193476,0.23757409720109277,24.854630903228617,-10.839901703262813,6.268988405572774
1160.0,0.061130437621855375,-0.11621478328468682,-1.0209908083653236,0.08311821508575695,-0.23757805119272202,-0.08624074642494681,23.653939007958517,-12.535757723543496,8.309386697557995
1170.0,0.01637460193894145,0.01995374086569056,-0.925340284650742,0.21285855349426014,0.3252743224826752,0.13839216766656676,23.797762538649454,-10.78489156148588,9.618065454551301
1180.0,0.09896117031974369,-0.0383744955977185,-1.0206723325421079,0.03771522565996745,-0.08442144513532082,-0.06019112958652044,24.279877824390585,-11.121765084172178,8.063436931969193
1190.0,0.020001492052518853,-0.036149893161198564,-0.8942985128427721,-0.0430393552486109,0.05780034553789677,0.4400900666206258,22.057147784510214,-13.14070247956655,8.711639703209647
1200.0,0.18630030297004377,-0.04711271807962915,-0.9091732774668156,0.03208853319191708,0.10418116235890651,-0.17837412358284668,25.722429633066227,-12.62863706926647,9.105711130475378
1210.0,0.042228782204573614,-0.10063824403550425,-0.945571132780581,-0.013389582250781296,0.32207736473514037,-0.651402075573539,26.881305754964057,-11.3334620512622,9.574899547857116
1220.0,0.16523906114893322,0.020851148931323754,-0.9169042016620785,0.579918253090441,0.5117382196199822,0.19021749637551766,25.15830472520448,-11.684717221343666,7.162419002193329
1230.0,0.13187391359065828,0.0021616551658878605,-0.9309892771568797,0.02140942439040472,0.538491638310304,0.4929437606822605,25.22903454075688,-11.53809591807873,7.741246819631047
1240.0,0.23822636635329797,0.06289428831851357,-0.8927855676299504,0.3032381214699854,0.12511482013185848,0.26699536926847706,24.022013712778925,-13.987806976231605,8.555403692917467
1250.0,0.17540782848585484,-0.09962713246214522,-0.8317996908377946,-0.047647304994991924,0.4279493191752499,0.30051508598080223,26.46959638979677,-12.05740878215553,8.10236719976838
1260.0,0.17767011612826192,-0.01847011491619627,-0.8350177698052574,0.19324781520524106,0.44565036543384096,0.405730643093199,24.671648136018188,-13.215842598894707,7.299341350897751
1270.0,0.17877359600406162,-0.047991358178814426,-0.91033751163073,0.2749270821623585,0.28006089504418624,0.45764602541816013,24.827735846895546,-11.683398333878367,9.729825851729816
1280.0,0.25829338188016776,0.018121302263818716,-0.9432988207355102,0.22904548106316336,0.08350973896197184,0.587376028687717,25.150105120371574,-11.760083798264247,5.092525910690631
1290.0,0.27088471105522666,-0.06315856492855894,-0.7728387239906144,0.019769299489574066,0.48782632320946856,0.20217645701111073,23.704770152932515,-12.566391912459128,8.13867316451198
1300.0,0.08922908273262144,-0.015903418603704925,-0.8689546904695034,-0.08314011108534614,0.7505443411078783,0.7791593919733347,26.65645743064992,-11.64907463295784,7.67685130821858
1310.0,0.2717617714346271,-0.02178444894733396,-0.8159852736993239,0.2511729341394073,0.44184579140142627,-0.130732370878364,25.328255045267213,-11.939842238978203,8.466369189482856
1320.0,0.18535831325670807,-0.025692230171715527,-0.9171993636713107,0.3991022469295753,0.2265072478104233,0.7570187430938704,26.4589533628794,-13.860206698568087,7.285491225305167
1330.0,0.16270554260069903,-0.04313018956622102,-0.8425464258998306,0.53134337124469,0.24721860514055083,0.7851416323341847,25.70878032146269,-12.603492394910674,8.15163887267614
1340.0,0.18090725730198193,-0.023584240917145182,-0.8753124643642005,0.35225140904725827,0.26653562711250967,0.371732784464951,23.882417257196494,-12.799043607334577,8.784840104176435
1350.0,0.1934792624400712,-0.0017259779383690219,-0.8588075288922368,-0.3051926101710659,0.617850587922381,0.8136366090831053,23.85656721253964,-13.105181886371488,8.804829920986043
1360.0,0.13174392752985065,0.015473479381064876,-0.8653532593170703,0.25701446917672977,0.32090804741751056,0.5093404841189897,25.52796096971708,-12.648396650602796,8.459580548088129
1370.0,0.09922968978955657,0.033832121654973166,-0.8291849112932217,0.011393931438208937,-0.06542980908342355,-0.05329841336495336,25.839106274807772,-11.228418246262963,6.4544457870549525
1380.0,0.15205637480945922,0.06262400732434907,-0.8650934801655268,-0.0274850789870473,0.12425887723669657,0.6504247894621571,24.470961507747077,-10.95797449789954,8.69232265590763
1390.0,0.196206443269817,0.03375232629803956,-0.9007083390317776,-0.06809889740270014,0.3262992598010595,0.8550748745050676,26.72842599615765,-13.22396124303472,8.90564866779147
1400.0,0.041256007151603644,0.055573456625659816,-1.0477853056482305,0.26722339339395224,0.0920274802614271,-0.0248132121169284,23.309033523423995,-11.773210485543467,7.6728176373932735
1410.0,0.07225187551563934,0.06241576088944431,-0.9888614804095885,0.045829046685817124,0.0897398188185114,0.4868920899298802,24.47186114385898,-12.385438104123534,8.566824156312247
1420.0,0.06834683846085698,0.010482595932990266,-0.9721999097704914,-0.12747538045485496,-0.0053460264302798155,-0.6883906531288325,26.153358788759206,-12.47489057743013,8.092470350007062
1430.0,-0.07404070396148374,0.054888067178194166,-0.9901082973553363,0.5650182325035757,-0.09664587046374477,0.7787603588564587,23.36483632475678,-10.417019015223168,7.829979155271997
1440.0,0.035082175098618225,0.03631595989462751,-1.0232096979065586,-0.08043068114780462,-0.24514849764923674,-0.2107828325428904,25.08885924581403,-10.624504030645841,7.885447653976986
1450.0,-0.050086590237974224,0.06800934784604487,-0.8960291771132392,0.2507632615452208,0.09086814474898354,-0.41763377847741373,25.67085022304833,-11.977138916713027,8.487029575933468
1460.0,-0.013025762647769144,0.013012186989630121,-1.0926663833331178,-0.013679692756437177,-0.2740175713437156,0.9612812877809604,26.709468591550333,-12.248783619081706,7.269968570783264
1470.0,-0.016685120078321222,-0.09838572801102136,-0.9352868240220473,-0.5087813200044672,-0.08184569575944337,-0.7871949712037497,24.80527521204802,-10.911627788571717,8.360201953744284
1480.0,-0.06676906970874696,-0.00686729043672275,-0.9304395305634672,0.20535979556205705,-0.0882536677359442,-0.5645755201403855,26.089857667027538,-12.09096647916159,8.034646604904653
1490.0,-0.16013198753313265,-0.043591941180859135,-0.8875766434479752,0.2750471444043925,-0.14547581102601168,-1.2335953638989474,23.49778192224794,-10.568869795767768,7.783101002127058
1500.0,-0.10144632636041065,-0.006595027769896679,-0.9942052017531501,-0.520565762101528,-0.2525623462589577,-0.3200231914349431,24.072642229109384,-14.214725305021105,8.666132533674247
1510.0,-0.12833629067310773,-0.10486674375982573,-0.7790845056090718,-0.37756001436488257,-0.3908914010838318,-0.01109970425097015,25.075040398248255,-12.041804492126237,6.952335975392472
1520.0,-0.22546541004820228,0.01332612165494261,-0.896275837179844,-0.31340180136582596,-0.5455403723444526,-0.7846350519725318,26.25511919890404,-14.115372759325771,6.839812721751254
1530.0,-0.06756097994141123,0.03198117522783265,-0.9092529867292407,-0.19065252493123697,0.14661174755839945,-0.40741748993064075,24.780373361258643,-11.835167082985478,8.83163961442949
1540.0,-0.23737681541058966,-0.04461769290926534,-0.7538017131736997,0.05493194889646741,-0.29745213895621214,-0.104258319985403,24.794653402618202,-12.462661566298824,9.523174741568162
1550.0,-0.060538816834244724,0.05272999592388722,-0.8810841135504194,-0.4729315432197623,-0.4137419831266031,-0.8439295770947444,23.48588647335922,-11.840014886703974,6.024168850336981
1560.0,-0.1952232897903787,-0.05816811509122636,-0.8614265259609705,-0.5994590925001723,-0.47335520992612173,-0.4873159935811388,25.586538612128788,-10.401788598130903,7.676753278581364
1570.0,-0.18935409668003148,-0.046713267175015005,-0.7516166544564822,-0.38100222504003645,-0.5868845478362964,0.055735754545503446,23.45770274825878,-12.941657597131053,9.542022043112988
1580.0,-0.20975438245638212,0.10217513487757934,-0.8230456331661851,-0.44229614485450064,-0.33876985278281413,0.8461348428597928,26.00984910442629,-12.18779879529876,8.375160029496607
1590.0,-0.24698070095740413,-0.028829154570191657,-0.9000954012632245,-0.38598332989660006,0.12795942940706156,0.21378048991892054,26.269953338362086,-12.305507335986249,9.231487967063078
1600.0,-0.12046856820425239,0.01632690997533964,-0.9422574429785269,-0.8195227411118271,-0.544601314804292,0.2218435582275894,24.422818415177957,-13.110491891641347,8.26340387935714
1610.0,-0.16695352621320855,-0.020727779683923003,-0.9481427808460889,-0.5577674774576731,-0.17118602134447325,-0.7616319320103779,25.156357649868774,-12.211700221733881,5.87922045854085
1620.0,-0.2843648813091248,-0.014921742734442595,-0.8303223957542889,-0.18539353554795263,-0.3795779823773283,-0.34105864988724854,26.648716192260743,-13.26138051547069,10.235655472964433
1630.0,-0.20419612675604165,0.02709735429661224,-0.8757968242296391,-0.43680414465571565,-0.14624796980201266,-0.5637729558211431,25.970883678400217,-13.092608764076353,9.745486597876464
1640.0,-0.19227829276523925,0.06002068499997709,-0.9590281121020481,-0.4324406099872208,-0.05936523064591731,-0.11632033335351924,25.16015616628048,-14.172096274851738,6.968220025813649
1650.0,-0.1731886974384935,0.11532777321533874,-0.9311829910811333,-0.31493318504891565,-0.2694272976789386,-0.056783774845426266,25.0596805552767,-12.562814043020497,6.5275810688791625
1660.0,-0.16821630815292682,-0.00894185008570569,-0.9210819499745132,-0.2340951494340365,0.02335558537034954,-0.43253727336506087,24.717043532347898,-12.97696080997042,8.61845539107379
1670.0,-0.06483872336706062,0.09769030210353102,-0.95127105367146,-0.0833813600741142,-0.31681935157994745,0.271252554648392,24.675035051013456,-11.583982388416297,8.969899318974756
1680.0,-0.12470340098312145,0.03618458643707517,-1.0273998266044286,-0.27418878284617626,-0.5160062388085578,-0.5237843708081789,24.86224685570236,-12.648923339801886,7.0355502481210515
1690.0,0.0063606978905608735,-0.012763183974018814,-0.9450439003866982,-0.37300683451356426,-0.19193151526083346,-0.4487375318572948,23.97626936916563,-12.046659927416611,8.626868160094826
1700.0,-0.07336882044007051,-0.03742279885979673,-0.9287674012319038,0.17400291119697875,-0.341903950063912,0.05113072388354958,23.98048632658796,-12.919148414325907,8.261760245062275
1710.0,0.04070146247092124,-0.015574414046150169,-0.9316338796022958,0.10688518199559516,-0.0731248600151074,0.8734634483268977,25.002373218469806,-11.853536187909016,8.609364389261868
1720.0,-0.0048994576616305865,0.050368166387590674,-0.9925328721074796,0.15303005865912134,-0.34655745595580656,-0.45833742763339036,23.600657926691735,-12.133274306850419,10.045343778451123
1730.0,-0.12160404713977907,-0.06103732620387906,-0.9555017371533463,-0.22009923460988803,0.1080262364301566,0.20676344025511573,25.441251901942984,-12.269836180444097,6.56141641605854
1740.0,-0.02873630093232108,-0.016590785912858914,-1.0022148151529462,-0.03102874778923253,0.1349691738258747,1.0032587139495317,25.291897739833576,-12.489176418258545,8.926746234912189
1750.0,0.08232263754002664,-0.0066290107827199456,-0.9207596459230734,0.3288441402398618,-0.04236182344880213,-0.14205954487023814,25.52385192770404,-11.139933650186896,7.505520965086983
1760.0,0.022603203824113793,0.014401073688869734,-0.9216564646008604,0.2784131878884417,0.15717755853952017,0.2677018477673818,24.19239388490392,-11.23485208732688,8.585103831505828
1770.0,0.021058989631466032,0.010460038909885696,-0.9915454992168689,0.06770461437973775,0.16328781939037124,0.419665006058165,25.413169151891523,-9.609945905093262,6.959418262942889
1780.0,0.033311305764137975,-0.00657256969937442,-0.8677512242758422,0.3037131836235363,0.4793319006877053,0.4978222246134234,25.84381203772835,-11.82180370503909,8.198065999769407
1790.0,0.19322164007169218,-0.053086666177063126,-0.892811297943194,0.7183031282458705,0.345770829192721,0.09951479869168586,26.418205555508592,-11.937469377715406,7.428709510487329
1800.0,0.13843273984037285,0.004294810101795484,-0.8480600015020939,-0.01498451368564463,0.3415398659641691,0.07837030017011744,25.32052954910529,-12.266765723179688,7.703753584402816
1810.0,0.11792419030265952,-0.06235944871954391,-0.9440134995287072,0.19970938693835358,0.11145598010805821,-0.569976418879275,27.872556881942042,-11.812918866927339,7.376232879964708
1820.0,0.3093790132810076,-0.04196177337208955,-0.8530235189886192,-0.22078957811668515,0.7590207314566932,-0.5677995117664495,25.135287567864122,-12.909392814892877,7.886078210319948
1830.0,0.2871058102639662,0.028368402721021098,-0.900487263467259,-0.15026146045511907,0.33639706141021,0.17684595838449657,25.515017656880577,-13.41706310488876,9.23813845211769
1840.0,0.3017851494326058,0.04758501468752256,-0.7882321061854192,-0.057743328428983776,0.2964939754568927,0.4473638709530809,24.004094990177716,-11.144852808086648,7.792191724847482
1850.0,0.17600324007441387,0.0161673960536863,-0.8588213499328358,0.4294144619459882,0.5474053978935967,-0.3190376226991103,25.726101309101775,-11.757402108985735,9.610069872735552
1860.0,0.22895679328435592,0.016826653248483647,-0.9288079581450814,0.1755223522472808,0.37293464420416106,0.47445648440666693,24.975446828984293,-12.708715440134728,6.764932508971054
1870.0,0.12369353944209,-0.019389694748969417,-0.8260721750888093,0.24871142838139892,0.354485325913091,-0.09663969611802814,26.345518561358354,-9.786733773143645,7.845218978155543
1880.0,0.18355330083106958,0.07800464480290531,-0.851377355092341,0.15685597311818836,0.38469338462278907,1.1781600601070545,24.85723604371195,-9.93611169703092,8.026781054650883
1890.0,0.16836868969801733,0.026648914041779378,-0.7844139847977964,0.35109458507381414,0.24744716857036264,0.11741911870352931,25.247460497560898,-11.589403686427328,8.124614041082385
1900.0,0.23309848600476626,-0.02714287322897248,-0.9615352755618836,0.22858089859203115,0.29286970441498733,-0.3185435082510496,25.97737625955926,-12.515436834197365,9.144623608356593
1910.0,0.11536803016077543,0.007370720479998457,-0.8338742145985402,0.1741246513114839,0.04966236812518332,0.06892647554453649,24.420212602778722,-11.867365366785378,7.732973895352123
1920.0,0.17504720296490017,0.005292721294283711,-0.9193648383975058,0.1915002511486093,0.2884363899697975,-0.16394865669699638,25.73475766086915,-12.118059788836247,7.7156741830846665
1930.0,0.07241901141791372,-0.017429610401653466,-0.9706834170495139,0.5387581161155435,0.38786250480763185,-0.7266831120392448,23.972163278264052,-11.968732412050459,7.2022666572119265
1940.0,0.10187280185433319,-0.016863061149905597,-0.9026834642935969,-0.026088135283022007,0.056862787111784996,0.3370284831606247,24.868170911680007,-11.420186630104855,8.527596757985362
1950.0,0.0885836497862682,0.0045764622595121035,-0.9170146622683255,-0.08718447681925443,0.37256119907721286,0.5402763606923794,24.026400935137026,-11.691108359783883,7.840904268542284
1960.0,0.14665848860121491,0.000819163203877156,-0.7912789415526146,0.17091300020096478,0.34492880677939697,0.2323060183816426,22.736135372911722,-12.453392343809439,8.046139261803713
1970.0,0.04241155543821889,-0.033628274332130045,-0.9367124264018021,0.16190627188815643,0.010173808384563832,-0.19959316979517477,26.170437998256435,-12.596631213165077,7.3800813398363605
1980.0,0.10185712128171925,-0.005461059992546959,-0.9160421964759454,0.3148427792177249,0.2287896852062686,-0.4189547072100143,25.65473252232443,-9.988547353882215,8.858758376351185
1990.0,-0.03631755885814175,0.024432179400882492,-0.9854267229991602,-0.22462339885256632,0.017654431700527717,0.17121889862715142,24.129942233576894,-12.303052618463656,7.190644022886865
2000.0,0.05761446833009412,-0.09385356638908626,-0.924241374220662,-0.13349169043113973,0.07380785675992728,-0.014185834241227394,22.4144444756737,-11.550353056837263,6.827339210915685
2010.0,0.012733901470769596,0.004069763395594433,-1.0544692018758077,-0.02097469950454176,-0.12556695951783237,1.3565392913454015,26.308834582163254,-12.625648203646342,6.273346040230092
2020.0,-0.037137367038243,-0.009319080592043146,-0.8931348142409252,0.6531533280847455,0.3230225747841289,-0.3746224399413092,25.741734873905372,-12.367721278343101,9.708435988972873
2030.0,-0.000884712791216373,-0.024459972172608296,-0.8016361807688633,1.3049840052265456,0.3652204827801073,0.04485874221793416,24.3622017904288,-11.354633481133128,8.945425631647677
2040.0,-0.09937267886779393,-0.05949532168922076,-0.6147571045218829,0.9826523413653252,0.8709622525445945,-0.7840938722653065,25.368981522716073,-12.308740559431335,6.7269907260491735
2050.0,0.01882690755942512,-0.0007830398966824129,-0.4973395226964993,1.3424693489777775,1.0924580543454112,-0.5410128054350524,24.966017500530054,-13.321313191756378,7.65977791043289
2060.0,-0.1246907203187303,0.001931976375288955,-0.26148328270385857,1.4114590348557148,0.9125064920583815,0.17994378487550333,24.08653009998484,-12.112875954946546,7.676092906129158
2070.0,-0.2177113467348642,-0.0013761095384382234,0.0035463480494934974,1.8345776874474418,0.871701153806426,-1.6524307688293296,25.793031178006828,-11.052422100994576,7.539284739475069
2080.0,-0.17079864974193654,-0.049539817237310574,0.19008496120770935,1.7557246412272243,0.9572018749873119,0.6089738776890521,26.796049315589443,-11.751314963009039,8.107250316239488
2090.0,-0.159397492838054,-0.02010165089489646,0.4131617561861368,1.8422702177980557,1.169121008608552,0.37774250349572214,25.238237861754286,-11.551765291284314,9.440437855296409
2100.0,-0.1297966839537455,0.03292012645722617,0.6765908639743453,1.767916734685817,0.7706332147068007,-1.5235836469612853,24.756499667269402,-10.974241090406966,7.412879298923766
2110.0,-0.21310499162070126,-0.023047781453430158,0.9647939011036155,1.5516844721183798,1.4496953892998758,-0.5504466615233419,26.6529326602405,-10.830418505233807,5.203323169337214
2120.0,-0.22926506565216065,-0.01853132294228197,1.2061972760705004,1.4846072935248364,1.0214315259495619,0.16144516214999086,25.678145368696686,-13.608065542387159,8.18017312792961
2130.0,-0.20614364462409654,0.050362451970896505,-1.8204771674274671,1.6179640566404352,0.7263501858072543,0.2730631803162345,27.30601366168527,-10.43084218705715,8.74337243265238
2140.0,-0.16736648038461743,-0.055067277090002364,-1.8504637554188625,1.2654059783231206,0.048255871271493,0.34679299046140294,26.04967560307704,-13.295419811647976,5.842363342141066
2150.0,-0.25105119441431367,0.04510268536410856,-1.799157275501046,1.0788337761215265,0.4734254115602425,-0.4729579668992355,26.11064911033448,-13.63413970490911,6.919362200390311
2160.0,-0.22949873201920984,-0.031234848841783094,-1.776059775166396,0.8484271346975343,0.3971902096751808,-0.2389321898444511,24.66241586478256,-12.317536865982232,8.334225871207622
2170.0,-0.1897356574528657,0.048521258885342394,-1.8098577529139117,0.004445007853046912,0.05098970212392451,-0.5353495659562846,24.68775629712053,-11.441119157244378,5.966238096522903
2180.0,-0.24371668756128845,-0.028371599183388163,-1.7755391505782565,-0.23202028012328685,-0.23913520113808875,0.6349643621618826,23.542899340744704,-11.615554650806262,7.462143066070732
2190.0,-0.15317010920707727,-0.035655219111550805,-1.8044422629468606,-0.11476888392289733,-0.5312665331804327,-0.11442427269596028,24.89888875300744,-12.328456331576035,10.039296173157886
2200.0,-0.22059177229932853,0.005867801333556772,-1.7601112280559068,-0.4517145203538492,-0.5387860519431019,-0.07103719338138333,25.04135345874772,-10.3510802715695,7.837289643364233
2210.0,-0.16846885864894612,-0.04509597214991025,-1.7888408010507808,-0.5051921975922409,-0.6282174931328962,-0.7411450990793456,25.692488880695304,-13.404680629347263,7.78244009687211
2220.0,-0.15148550470968045,-0.06348460827807471,-1.893156648386247,-0.3199356766498003,-0.3688932282746496,1.1147592238491826,23.95482768954936,-12.282564345291659,7.299748618607911
2230.0,-0.2058426825941262,-0.057816937367858826,-1.8475578271482116,0.04637469078122061,-0.37225220400933257,-0.8353248766469186,24.47332132855312,-11.734758944316992,8.360223151809318
2240.0,-0.06839448517580915,-0.030355994944379263,-1.8057616286720828,-0.49480609223253524,-0.4545140412668115,0.7113293150783312,25.044762125814135,-11.896316545532226,7.087253825892011
2250.0,-0.15449630598576763,-0.041249544161256244,-1.9018126141715628,-0.36815103903887814,0.006752710585710087,-1.414782250336066,26.123776087632596,-12.643381798118902,6.624196736987969
2260.0,-0.07209564290148113,0.0531559686302574,-0.9515373093706309,-0.1810880224880892,-0.23530970972483323,-0.45175521919490874,27.639038512933272,-9.545465712925969,8.277196871457127
2270.0,-0.030950937532605027,0.02462507891982605,-0.9990407370190375,-0.09582563584096952,-0.2895806027732687,0.7269172323954104,22.502092435483863,-10.437388187811452,6.73412273036239
2280.0,-0.03333281600324001,-0.03856053038358288,-1.0759544599069273,0.11828302450775965,0.1277940672490363,0.24251845197945782,23.527913223706868,-11.889973433508098,7.609294773078613
2290.0,0.017996316880497874,0.13906305467656432,-1.2629940228338477,0.08098898676785335,-0.3524366679500675,-0.1599612737409679,26.4494897286584,-13.523952585739345,8.335038292290603
2300.0,0.0014040385156368195,0.0305168985297001,-1.501458602964188,-0.11131551691677063,-0.1183369295131854,-0.30591422195401674,25.337831630827573,-11.57387962316354,8.877273196064264
2310.0,0.0813361921332134,0.08043394083296054,-1.6277785321280425,0.2820971819772459,0.06885741402159157,0.8004586712632159,24.11615645932106,-10.71966125801445,6.38140858468013
2320.0,0.058019868530765906,0.004576932347263178,-1.9393185920034508,-0.18529739443264653,-0.03569019437861573,1.0659957313617192,24.819187813431846,-13.017122894491983,9.240115851157006
2330.0,0.0859031295758682,0.022142053739012353,-2.2152189927804953,-0.12830901942296388,0.4789969317517448,0.5402689351994199,23.407074196772662,-11.589226283757911,7.533847921452182
2340.0,-0.024109573462890388,-0.06528811337040762,-2.568188729158194,0.2741106358462222,-0.10453761940597389,0.524211054599025,26.300723241747843,-14.152729042343863,7.239729049210553
2350.0,0.15404880003274166,-0.17103067794777194,-2.938014062848787,0.22086482520291711,0.3686881510113598,0.4602006477126348,24.73103161484693,-11.98001258064647,8.713160555366983
2360.0,0.1675583511330742,-0.002307114084037105,-3.231579034279196,0.20195643587138026,0.282643125209933,0.7293077845190933,24.812728893784193,-11.728379580894195,7.230386730603239
2370.0,0.02084045296198833,0.020598439064190118,-3.5658280890922156,0.09372812579917708,0.04159972132013931,0.2939965122356933,24.293264615898355,-11.623366713101786,7.52303700208793
2380.0,0.1085193336086114,0.0015630770214932477,-3.9549372964778593,0.29418668930620484,0.31676643190765164,-0.9065678123858106,24.715477135008296,-11.770045895433364,6.190268356380749
2390.0,0.23310596540195982,0.004058313236596985,-0.9279097890863588,0.4393682791197356,0.4886714369400975,1.059128917385136,26.896339124313453,-12.239139155506377,8.614114227962911
2400.0,0.13314491484372112,0.06462831904704401,-0.8696554625529337,0.24067179538580832,0.5300301033187831,0.5852653727165371,25.601358951411722,-11.192016246960002,7.520932388261249
2410.0,0.18216940449160712,-0.061385780884019,-0.9095653750505558,0.5119563908372576,0.36151737274983003,0.6251593228084102,25.694862640751843,-12.95891921112279,8.554983143617592
2420.0,0.2737480027624385,0.04700198788288121,-0.8552810118513637,0.4193749588854094,0.19810472373183674,-0.7316568283317666,24.82502302160013,-12.304749977021462,5.7950921206469905
2430.0,0.24596715190984625,0.040480718043901354,-0.9138800480436862,0.5310216668477534,0.5152038806431821,0.4785145918365673,24.894091279808066,-13.755642136966845,8.856571967358978
2440.0,0.1190749705930167,-0.05700114530275328,-0.7726817069622075,0.09836095076162996,0.22785851222748435,0.25085936784158364,26.878648596539744,-11.637206511591238,10.544593482480215
2450.0,0.21617702027840263,0.03973470305549066,-0.8900897503491616,0.23041645231246002,0.5887521323446641,0.3272856828576369,25.453761907200708,-12.043537828114978,8.059577583618404
2460.0,0.14743034558960444,0.04824321833609835,-0.9508998135102026,0.04648487052852934,0.6105402607868542,0.29995213194263043,26.57762325424681,-11.364707175619445,7.60177645979059
2470.0,0.19132922434698976,0.032669434978494456,-0.7760452257808881,0.20083342735688867,-0.03848708827003994,0.24967619621544063,25.03102770948464,-12.784838068247078,6.354706211457659
2480.0,0.16723961170811352,0.023862209142526423,-0.8972914333540737,0.2556913755238334,0.14615136829058478,0.22383630364447676,24.520819036288476,-10.986499114211009,8.671797007274913
2490.0,0.19164706398726852,-0.01798266341352958,-0.8497416926522181,0.1134159835223883,0.2336540957465049,0.8014742949929086,27.1646963686297,-12.388127304087668,7.448638966543755
2500.0,0.13394059548813836,-0.11238724308477538,-0.9667253700954151,-0.01568704851023306,0.02846935980729426,1.1998546997554091,24.848517867396254,-11.546672580772784,6.001995395387034
2510.0,0.15552808817463457,0.009777954113329983,-0.8705880249895926,0.215554121637542,0.41137626408482747,-0.025343516726798215,24.378421262631804,-12.002554826281646,6.958629395329952
2520.0,0.07825082361816711,0.07981224935353431,-0.8663048194897469,0.34361360593355517,0.09416759791911827,0.3614372718511134,24.046979050744802,-14.158162093129901,9.167659064380278
2530.0,0.043438357006718914,0.057760418068566126,-0.9314177934339762,0.3069519389478496,-0.07511293931244961,0.4917675424445168,26.34395795570095,-12.84780677014699,6.4379005109236385
2540.0,0.02257306901254147,-0.10263133050078091,-0.9360382146485019,0.7022325124314546,0.332093783417138,0.18670969527456754,25.243795624789485,-11.776414565279381,7.3728110857184115
2550.0,0.07575951599466699,0.010158773691699296,-0.9840889521207901,0.13497949043320775,0.015532509794057348,-0.12889542539572424,27.07843549123779,-11.478647209729477,7.918994820999312
2560.0,0.14848108643668728,0.06729269205331388,-1.01624538798591,0.05358545647465639,0.190801342056902,0.3863106418761647,25.043740796920016,-12.296166968082138,7.790350853261977
2570.0,-0.017168865166586805,0.03568610605255955,-0.9647493009444211,0.06746120137759327,0.2064408906711947,-0.3576813308659183,24.20019084400439,-11.781633349720131,7.3695902944664144
2580.0,0.07518695243402054,0.035934661868460276,-0.8729915776201596,0.3319677572582605,0.11301032391233959,-0.2043694098154993,25.41657365451478,-11.480260131097884,9.60864607477313
2590.0,0.08983745829718125,-0.10234574777633461,-0.9980960133960127,0.06987884263980113,-0.26697918387458097,-0.1497132703202569,23.6893125056732,-12.901228251996669,9.800225773055002
2600.0,-0.03770427793091878,0.08931285215404754,-0.9871216678722613,-0.2953663758024479,-0.26455658772049157,-0.08184866917243633,26.92978943888885,-12.535929965005266,7.890882912667416
2610.0,-0.09058053124135268,0.07305075209052393,-0.9585534618841471,0.1521029010568982,0.10220909315045931,0.3676757456474812,24.96200838258049,-10.511169675703147,6.65544804798027
2620.0,-0.11609394062557385,0.004683759652089371,-0.9949673424687465,-0.08610513140737543,-0.2647405576345646,-0.22926317395257034,24.74387949271547,-13.064979094115241,6.94231850564254
2630.0,-0.10518134700774705,0.009366328970305633,-1.0090253512722476,-0.41412531089141713,-0.3118075577793251,-0.04436475531527349,24.075869230784505,-10.425264994862786,6.6830583321566275
2640.0,-0.11117516678683856,0.07257173439720171,-0.9920699294849473,-0.2119926612065854,-0.114175459021569,0.8311641747688049,24.991351730437668,-12.081740072019732,6.62756536449733
2650.0,-0.1114695109509091,-0.011785317129325555,-0.9402153111713571,-0.08111774883042293,-0.25161719439903507,-0.7365573957823583,25.91192179017106,-13.201751483524486,7.420631462239412
2660.0,-0.11699271136925174,0.014160356820163462,-0.8745808299500845,-0.28903632817817465,-0.33661708388959477,0.11159715402063661,24.540181349960363,-10.926388421650415,8.728335015062779
2670.0,-0.19151656338328774,0.008019697885202666,-0.8385331898828637,0.16817885891692164,-0.16939423479986884,-0.8402272436456729,25.561238305766835,-12.805888990010775,7.371627124098889
2680.0,-0.13095837052117038,-0.03220091176123838,-0.8998656332637672,-0.045755881364714646,-0.13004814839959986,-0.3455799147902779,25.086798675026863,-10.489587151155632,7.865190030225828
2690.0,-0.18985834963631662,-0.036493254990929376,-0.841573604982542,-0.40197195851261636,-0.28748756131217995,0.376805042821556,23.398675409756784,-11.664626963527933,7.358221156782123
2700.0,-0.1658669101181472,-0.011185867485059132,-0.7782929698270227,-0.6247367664231294,-0.28132002212731216,-0.2161124850880743,27.064843984263515,-11.824013593628031,7.204342233260014
2710.0,-0.251047795499076,0.05196680954368611,-0.8349531810966705,-0.030102575087127104,-0.6810315200227297,0.39836490727838203,24.677710802486754,-12.350262046552455,8.528334072513545
2720.0,-0.15986782649760872,-0.05683787079222438,-0.8155729073934216,-0.22151508547275198,-0.2846412917958324,-0.3038150668125493,24.518762810937353,-10.97011930251012,8.058834021047366
2730.0,-0.17043772354646844,0.038252761554034335,-0.9154344145579588,-0.7390641571083272,-0.6298719433255406,-0.4234083268341025,26.953143734450375,-12.345896577762833,7.871876092058799
2740.0,-0.16151292566880615,0.08332849179775041,-0.8502827992753307,-0.42131770740347985,-0.6253148104583597,-1.040365661986165,25.321996209344196,-11.937397531340395,8.432742386252727
2750.0,-0.21057949497945289,0.04223889142679141,-0.912613942852256,-0.17200053784887714,-0.33727468809860583,-0.07667706714666861,26.28051384481932,-13.496183929524932,8.075202542292724
2760.0,-0.20265165387392978,-0.06777964745881743,-0.800142355413586,-0.6095359085109424,-0.296986423811743,-1.103084893304479,24.346014702502625,-11.099844990934722,8.471044077320716
2770.0,-0.13007582216844518,0.020309583871317077,-0.8244497546347064,-0.30952253577923344,-0.4181512574755899,-0.7871722374155607,24.96330515451136,-14.45854998441178,8.212127706845866
2780.0,-0.11070368198195711,0.03261740936681065,-0.7892699680900479,-0.41389958128184456,-0.23686399050658397,0.1243548981011725,25.05743594962728,-13.364079890916251,8.922266773663358
2790.0,-0.18872718780563066,0.09471412497449702,-0.8463648786887139,-0.27093396756346244,-0.4232406756289179,0.11886010092206328,24.460350142786243,-14.579875710968363,7.037347795904767
2800.0,-0.1096975064127926,0.052229845175490355,-0.8434764494746295,-0.014658699691241894,-0.5129749098213444,-0.035522841285598475,23.988064460481123,-12.029934365825108,7.291993315841201
2810.0,-0.14001804889724384,-0.07731667530282926,-0.8996890771285491,-0.749937109241051,-0.11974210105520397,-0.5685090271207138,24.401041482536904,-11.802445811974215,9.122519008153374
2820.0,-0.03391009832488184,-0.033322536417919345,-0.9343567604001426,-0.4747583034478305,-0.1702893816518065,-0.3120980192384748,24.99778210776404,-12.156772138694144,7.717656117480009
2830.0,-0.0641136954319623,0.01206929273716835,-0.891803795448681,0.4657859527040895,-0.36812864259866823,0.09881960375061917,25.375846268658222,-11.170092018357087,9.379537722225015
2840.0,-0.05904264267568507,0.020571783136277097,-0.9179772595520822,-0.22519112609960018,0.010488788864753767,0.1606304096628379,23.63211580264718,-12.48687097165733,7.482875791585241
2850.0,-0.029665770076665245,-0.07611948057071545,-0.8961145990851755,-0.3467647800332445,-0.2686348995649429,0.6756145501161421,25.709339674699443,-13.674146419311874,7.788853213058143
2860.0,-0.05010796049338046,-0.03717645113975281,-0.9189664662075016,-0.028762443154596355,0.023071966742338024,-0.5326122576495292,25.203014493717074,-11.42736166856024,8.025281131439643
2870.0,-0.044590003009581464,0.028717704069408524,-0.9797708410044029,0.32297415589260936,0.05908118721240841,-0.6541735592611977,26.43503257037542,-11.552730737838253,6.771734715432335
2880.0,0.012348229325157889,-0.013513727148872001,-0.9922159477177104,-0.08509142272504829,-0.17069568127729984,-0.1789704488442558,24.965636389081997,-10.733231155196508,9.031332082864592
2890.0,0.06038822142880593,-0.056972025440838715,-1.005796622466425,0.2299360707027859,0.20157726891981653,0.1986553344984169,24.932228292940778,-12.167070694599813,8.324716742571795
2900.0,0.029323479701208195,-0.010736581618538561,-0.911999267414171,-0.13121131984298834,0.11874584623140813,-0.3506022721126507,24.52910462997884,-12.330147938408494,8.367190677729154
2910.0,0.11410841134654545,0.08467622106126922,-0.9441657808886564,0.38780985005477714,0.20801580101466496,-0.41656038737455514,23.404109443810707,-13.434129328684394,8.693798789555945
2920.0,0.08659261561374607,0.04062431309079838,-0.9087362053330503,0.17978240881497148,0.2475997941276658,-0.24340730166429464,26.59499577939013,-12.302719659380939,6.491709423612907
2930.0,0.1660596136564108,0.11243611534292311,-0.9307058256700632,0.3300758116162955,0.6102939102985057,0.48147335864093316,24.90286623736377,-12.337160355909495,8.03519962385066
2940.0,0.1379986561707623,-0.015067079826338767,-0.95008029826959,0.35012351008178566,0.5685824070525836,-0.6979369633485508,25.370044992908756,-12.495014513491748,8.205756202516852
2950.0,0.18954696715638994,0.008421673634541129,-0.9311516567371458,0.36169971434735626,0.24269034338334664,-0.0459318880162711,24.430348610656072,-12.982217193384717,6.962132817567549
2960.0,0.11970446114883618,0.04612227719348713,-0.8572266523699592,0.23581823282913655,0.48717221390071735,0.11858140696770267,25.57263264080901,-10.618010341059568,8.905004865390906
2970.0,0.18290388368117574,0.013014204023437776,-0.7354505231190729,-0.04524796641699086,0.4376822464595983,0.13224655189785778,25.63297659261123,-11.488076171561982,7.018366858481611
2980.0,0.22573541840156444,-0.04337142624814969,-0.8167072290002053,0.3203217741290133,-0.0939094386798433,0.2398845431996544,24.832633525852735,-12.589458218428476,8.182563283537878
2990.0,0.1977673676505394,0.07839350009748199,-0.9113495252190434,0.375807844288646,0.23576560553284168,0.5227112420610311,26.53001438054793,-10.680745705384867,6.92732570328096
3000.0,0.08839131277907632,-0.059891216221391354,-0.8331496448925083,0.2849676299515437,0.4799031257042813,-0.03446725832530356,24.083066376625858,-12.820522339751493,7.831919457539984
3010.0,0.2020154882700449,0.0015823150258905288,-0.9074295363759121,0.6112829871698786,0.7710016953478163,-0.1035501650624581,24.999584506897587,-13.740157464872691,8.456527311258112
3020.0,0.2772303871026052,0.029198122768225407,-0.7865818113568491,-0.02609168495501618,0.4870621207849698,0.792454308621435,24.554892104513943,-11.951866842624817,7.724756390112469
3030.0,0.1942329189534521,-0.033007994809181644,-0.8765984769224163,0.005131572519493088,0.6878714444633953,-0.4458378233375049,24.467969280648784,-12.60439271639237,8.537035478949903
3040.0,0.21759157021359188,-0.09919994606139561,-0.8306011539565303,0.41071117346543684,0.5188362769068604,-0.09753371279252329,24.768199589355255,-12.126449628140577,8.101652579295187
3050.0,0.23666719346866727,-0.10630897393991182,-0.8367247613436961,0.39525389691811363,0.3916540409468471,0.7866746600171054,23.06130078557299,-10.703749914816244,7.282711718942666
3060.0,0.04367355270595247,-0.056184458750614875,-0.8100978289844595,0.5785255175981585,0.7464754214264511,0.288698826979368,24.498948046151476,-12.899967143444618,8.559331311219749
3070.0,0.17742999872435847,-0.0009338024393339044,-0.9287722374806737,0.13036318287344273,0.659792999410806,0.3596260907315083,23.173195699517198,-13.35546498086048,9.483054173708206
3080.0,0.11561653367401095,-0.0005419071338178673,-0.852447389614182,0.6388200517920332,0.2571407859904077,-0.07015587227096703,25.392803401308022,-10.88961880189633,8.25138379544036
3090.0,0.10329552042262558,0.03165631306630904,-0.8843896292229294,0.36194498518655677,-0.01678517007886343,0.06968576896579742,26.54475792423184,-10.00397829432083,7.924161899847641
3100.0,0.1406771718043669,0.021198805532090713,-0.8471425337911728,0.3014019799118726,0.4564421203107663,-0.562133924291923,24.72124800168828,-13.328469539748259,8.228243749205237
3110.0,0.129938264506697,0.03767251065639815,-1.0041974730493997,0.05543851496867905,0.18668104677613265,0.1303857539396793,22.73537186789818,-10.904376891348864,8.508097981248858
3120.0,0.001986604825648053,0.02929639031518725,-0.8945414296116275,0.14081707968780457,0.15326094376916158,0.6946901506180989,25.65441662717861,-11.237611166478734,8.217350425077209
3130.0,-0.007814199216801432,-0.02484860914293976,-0.9088953543556414,0.27482819643341033,-0.022184874588158127,0.6672476110999376,24.445355257930967,-12.351055468042,8.625224581740078
3140.0,0.03402763146230151,-0.03715627589332448,-1.0019477132410004,0.11467784948467359,0.17275916488966625,-0.44390689282124884,25.90230823508102,-12.842614991202273,9.363903794268893
3150.0,0.1532690018736244,-0.013355698581662873,-0.994885629838017,0.18564561293177467,0.06282532339783255,0.10726306075697026,24.81250158200293,-12.106499576639454,10.455150848274037
3160.0,-0.06308756956684533,0.009766935887375561,-0.9816585398398149,0.06800304319944203,-0.012312413715443157,0.5473874411839974,24.961418350382203,-12.988032968789097,8.191377902649654
3170.0,0.012799149326570763,-0.010310788858648562,-1.0129804860116254,-0.25262161388873167,0.16944229084156637,1.3211230475108584,25.378784955861853,-11.595838681333149,8.313503235832682
3180.0,-0.0035963557633143656,0.004772435054800326,-0.9308723453042419,-0.06902202999392845,0.011292848178512269,0.4666554234026736,23.310150453622825,-12.275013581781161,7.121618128508496
3190.0,-0.09794820512349316,0.013243834641087205,-1.0405608456094992,0.0575463912206854,-0.2588792364359664,-0.64849925894953,23.460913696502132,-12.052515552047739,7.56604290382928
3200.0,-0.09591469865832931,-0.04969522177951718,-1.0002247906569615,0.02754310522609138,0.05506812592071961,-0.1614119785392133,23.470157287011755,-11.014844105297085,8.528365364499962
3210.0,-0.065071527720398,-0.01844430933715085,-0.9965618484944525,0.17095257646165876,-0.18361014835357437,-0.7539558780385515,24.33399759166416,-12.438155131335616,7.632367853602161
3220.0,-0.10687906328119519,-0.04734931900074259,-0.8542619720919521,-0.30207819752839393,-0.4599572131442795,-1.9643026501408276,23.95700446297063,-12.177607340168588,9.235152122354458
3230.0,-0.14971974649131653,0.038065330362038456,-0.8255950343451599,-0.4981314470751683,-0.3631964613337084,0.38956412488017234,23.932212796149663,-13.29651251909988,8.413318107619927
3240.0,-0.10550700629873269,0.029777990324712685,-0.9534190342250266,-0.4996193601351707,-0.4413335579610731,-0.49153125443458223,25.266247008524694,-12.294725944882623,8.265728785037608
3250.0,-0.11940478730001203,0.09603105616416566,-0.8526883424488957,-0.02375711662368718,-0.3889554103834558,-0.3900847144709054,25.621509207913775,-11.548280697866526,8.583442407783764
3260.0,-0.17087279846065803,0.04210070637955498,-0.9152558943595112,-0.6474988295764712,-0.43465697539757253,-0.42097875797764245,26.461113782929637,-11.383025544092478,9.464459220446926
3270.0,-0.18492087918906236,0.03453075233853113,-0.850509078808155,-0.4365327962795337,-0.5522247802015152,-1.1965570464042652,24.270838974991015,-11.27555695801501,7.997592438284668
3280.0,-0.278104964472225,0.02567765627759069,-0.7994522185293009,-0.04656843727203411,-0.15285888511679108,0.13051923230898607,25.018016070113255,-10.441623379305067,9.515111176591143
3290.0,-0.17259058457382875,-0.024110057606186452,-0.9202860962448989,-0.37165117465174924,-0.4612743382229053,0.4917208185534551,24.914657496448356,-11.496984984758871,8.096976419120574
3300.0,-0.15915377012310056,0.12153012983730407,-0.8304940229098177,-0.6622326865925092,-0.7575409431924909,-1.088414668032459,26.058223609625657,-12.809131648718546,7.106248192931752
3310.0,-0.14409073686772295,0.004433477373107376,-0.9148328686669471,-0.42039491902509846,-0.481165884292473,0.26790680790666654,26.11357300463473,-11.472650232822401,7.24788699253451
3320.0,-0.21508409827806446,0.018527136577089678,-0.8788572720434852,-0.20751332425633318,-0.3692044717386846,-0.49115579441660373,24.11718549437669,-11.60220484340396,9.29650522578943
3330.0,-0.16715665843521207,-0.09011235929864457,-0.7959059999936664,-0.3456659541818726,-0.3831846482545277,-0.8447780667016349,26.75214182073587,-13.12997762904707,8.51642320032498
3340.0,-0.17783211649633868,0.037075830172505896,-0.9514781868248863,-0.6503840596798857,-0.45629208497727725,-0.6696487058171152,24.879644403778016,-11.47053909546782,8.591703552389571
3350.0,-0.18529386631113057,0.05007916180682788,-0.8944393125625847,0.04100350558570043,-0.02740717214008148,-0.7354177713960723,24.522701230485804,-12.405881344171396,9.48987044541505
3360.0,-0.30185104488563713,-0.010380773776345683,-0.8455936032530559,-0.1296642192331673,-0.3398485522358589,-0.652136961671775,23.903680053077917,-12.311053505813684,9.297116975381538
3370.0,-0.15584392763870114,-0.02181320043855574,-0.8566175980942078,-0.14000689580034262,-0.05807162303670432,0.030270598134440357,26.8071675811011,-12.096629765282227,4.4182173639530085
3380.0,-0.03864151232795063,-0.045698439842053934,-0.8958644932008575,-0.3746563212696369,-0.1503779277826213,0.47787765770472423,26.5391533854364,-12.434918639944623,6.933649496487677
3390.0,-0.13710313464341056,-0.013585089431020103,-0.9358857576930076,-0.03095849611297047,-0.03902256320160896,-0.5324442710978144,27.06761728470861,-11.923506846487701,6.525050754053966
3400.0,-0.17535436929975712,-0.01529038162082473,-0.9388770739560724,-0.3084403806246939,-0.36328671324274525,-0.4726021495834564,25.32882924817207,-12.272005894071693,7.289022056368455
3410.0,-0.1443008108052718,0.06141035943064524,-0.9117945239085279,-0.26000026678796134,-0.26387461954614566,-0.7839466811229947,23.56642147099456,-12.705869104997939,7.295772152847004
3420.0,-0.09124709706859249,0.0595981918326909,-0.8743253013649701,-0.054996156912260466,-0.2499384954215842,-0.46490322149238517,24.4430937259756,-10.316167838418032,7.4085743975632425
3430.0,-0.07200338164343535,0.009309559580092842,-0.9281552062954462,-0.23931329877427981,-0.40155165700354145,-0.5156399904107686,25.675768999399263,-11.245048274482421,8.557274730906851
3440.0,-0.0006539367603715235,-0.013218865970392924,-1.015205047079242,0.2645337700788126,-0.2024609791644617,-0.6529929698941104,26.871154159808782,-10.978817802711703,8.747748811199983
3450.0,-0.013036012668666087,-0.03420630936561748,-0.9652125962904946,0.1532199247553038,-0.01908344101358589,-0.10140988446180393,23.921222376322337,-11.978302638477674,6.520880017898393
3460.0,0.014809301546731752,0.01247431081514152,-1.0538507307438272,-0.13532001216392267,-0.07239497302751487,-0.7652670999579015,23.876461112288418,-12.03445753685156,7.83366900488551
3470.0,0.04220940452626102,-0.021845339386467027,-0.8794213668169784,0.16370103268642242,-0.03576492028934027,-0.4076940786184355,26.214991775667073,-12.726200750881105,8.574721857329944
3480.0,-0.06381871918734285,0.04538248388310956,-0.9408558298360954,0.2193330987441579,-0.0009226307116514398,-0.34266861781424285,23.44669649284514,-12.550895199660737,8.839407656038992
3490.0,0.015551559477549722,0.034092267807763296,-0.9392748790007693,0.4080821240122332,0.15317600922185878,-0.5762064108246789,23.763453057194596,-11.995249479447484,10.598984679298113
3500.0,0.08648806833326705,-0.023703452208913192,-0.8926315551922873,-0.042052606108543555,0.11343293916724799,0.0498589930546646,25.132760398783695,-11.217049917732673,8.120623396307463
3510.0,0.08286261943799905,-0.05379842558255259,-0.9909214707280866,0.14375319126272207,0.564577302884467,0.3877934591491192,25.24311348131235,-10.520464920239569,9.763717617004811
3520.0,0.08743390047465346,0.08402517020346492,-0.9416974084475551,-0.0091309438804765,-0.03160004988533405,1.4614230273173292,24.246600027616857,-12.265763334217953,7.559910462250428
3530.0,0.17034848947908832,-0.03428298108606586,-0.8601945129338682,0.06797678920805245,-0.07547897585426044,1.0274381991768444,23.412460965994416,-10.452777433446427,7.782702321359639
3540.0,0.07945392694249301,0.06243975014393968,-0.9354243500688781,0.4688824486510193,0.0446630391711762,0.6806972016614099,25.527167469061936,-11.503462591168224,7.363160567396664
3550.0,0.21774701451218098,-0.07656343351240004,-0.7483901599482685,-0.008299200306825627,0.02007925469555144,0.16897690179431607,24.20306360515584,-12.382474524571613,8.629940294134023
3560.0,0.10699768269324686,-0.017843805814422346,-0.9136312809158679,0.16608708633861843,0.07409905131981576,-0.1485620136025672,25.48121337679395,-12.214243494602027,10.21177017022286
3570.0,0.23128675611659746,-0.022778435756486498,-0.826314524438796,0.12686255900150092,-0.017448644397162705,0.47786479320604613,25.70244250136873,-11.020415547968943,7.5142673443617305
3580.0,0.25217821799459067,-0.03665615129406652,-0.8041318762541608,0.2846197562327742,0.24901379319103695,0.0164268443718866,24.94081951828789,-8.670667303858961,8.415957070469243
3590.0,0.13255606701373351,-0.0007642699754796288,-0.7233345231942447,0.36674347064563867,0.7216707835264371,-0.15732838075304068,25.343542223999375,-11.781028726070254,8.735749848506623
3600.0,0.05914939091407875,-0.006647218099231956,-0.80085239793865,0.5116995877926858,0.19520789634413613,0.8061806644677061,24.86637009741339,-11.591798939786532,9.94229739232105
3610.0,0.16496554986804837,-0.020885248181675795,-0.8258286982533779,0.4936708579192414,0.5358103805823689,0.1605508956083072,25.997260017273515,-12.656921980720723,7.55011841030272
3620.0,0.28334329384154844,0.013033369121410144,-0.8418074832615138,0.05236191582166841,0.7897470392755466,-1.0563926536186645,26.229266178321424,-12.310267248375286,7.108216292546656
3630.0,0.21228114790360872,-0.0074819404521192096,-0.8817111071111137,-0.0073991943803773386,0.33889487711537486,-0.5824774527849783,24.71497910313509,-14.75015289805809,8.5110878039075
3640.0,0.20612603551350617,-0.04068797181383748,-0.841045606328684,0.5289674608439949,0.44021137109853964,0.5941082838390571,24.4505079282086,-11.715588466062412,7.813886583044863
3650.0,0.10275781858736092,-0.004061259972869831,-0.8417802202453939,0.21515925677157755,0.3728528142800559,-0.5776197484918887,24.65071879486552,-11.308049762121103,7.057335613037781
3660.0,0.20592093652456017,0.022534724395673413,-0.8889266848499725,0.00793089661527635,0.16322250947188333,0.9612447404649329,25.789748702785044,-10.575354678118938,7.74744079743527
3670.0,0.11149611847326565,0.031747594610739734,-0.9704367662079045,0.20103032270796864,0.2923644633051317,-0.0600763500065587,25.81878491126214,-12.516906112303234,8.541121755206907
3680.0,0.14637438004908443,-0.0833255848717413,-0.9229152727197871,0.2742680290787392,0.5204767393647305,0.46440673125805215,25.989944944746973,-11.038635886858492,7.475680451412301
3690.0,0.10002988046638753,0.029613064024886712,-0.9602776887614664,0.1283473703655222,0.09132955022778305,0.350438864242821,23.982031703187808,-10.749392682459908,8.174872221853205
3700.0,0.004969876185238489,0.05121517645071814,-0.9860540520801979,0.536882131245294,0.11900050635012911,-0.2550103751854973,26.230808318117532,-12.06694643165416,9.584477568808133
3710.0,0.18479722878250462,0.033560989556978886,-0.9964822800230265,0.007380601069982742,0.36070751531212986,0.4547247475185846,25.71096338925205,-11.713446014394282,7.748458594023332
3720.0,0.05079026250305312,-0.0369302155559288,-0.9561019202389519,0.15136137051671353,0.18405934335990637,-0.6496720604110682,26.437408577434063,-13.031967487344838,7.688037087923182
3730.0,0.04119635354480208,0.05049370906276394,-0.980078367549626,-0.14898581514727055,-0.06376532945241006,-1.4138184817367334,25.22737753364724,-11.4660116381599,7.216650352490875
3740.0,0.09548585023108339,0.029168840914399696,-1.0209341535221856,-0.1245551491058823,0.2295936061437214,0.8560479572682633,23.94141070526658,-12.844617735589502,9.67826091287115
3750.0,-0.09269053119108209,-0.019261976229534586,-0.9241226129708409,-0.04866919941557398,-0.24344189694627832,-0.5212933953105955,22.6168319881023,-13.166909538176451,7.252630737088354
3760.0,-0.05196025211532766,-0.065370400228826,-0.9571515815182559,0.02183148458899821,-0.13850556799988628,1.366313922970067,23.43576287223206,-11.835760160857761,7.472397243270781
3770.0,-0.06310190009706476,-0.027926631499028215,-0.8974219407873683,0.21443607287845562,0.17636850713872676,-0.30705227089037207,24.80835018877053,-13.162968255054267,10.22902943875217
3780.0,-0.09016357435420404,-0.0547171148731087,-0.916908130722767,-0.05572402114850347,-0.09425988050068002,-0.49623166615966185,26.230830426089717,-11.661472005844159,7.359299196757806
3790.0,-0.17268030428325465,-0.07202339333802318,-0.9377983628671543,-0.502600188026239,-0.13086960775826206,-0.6466193312436493,24.249673966355928,-11.265188660149668,8.545940939285133
3800.0,-0.14390690587939597,-0.05591441803206923,-0.8481649087777301,-0.12466240764907595,-0.45966752947405287,-0.016441670217090226,23.684052754937436,-12.290787756055199,6.745310692432748
3810.0,-0.2145538532532244,-0.038142605967199116,-0.9917584757080639,-0.28306464561439404,-0.0927161054029334,-0.4413279567980696,24.23009451698485,-11.546475502984828,8.757543568697699
3820.0,-0.19358377442723518,-0.05788896364855957,-0.9502880578476417,-0.4477180942268876,-0.3688037637709102,-0.9270121662882017,24.612884640628224,-12.353257179121945,7.591541026231888
3830.0,-0.194965419469852,-0.039444901153747575,-0.7504102991524052,-0.07452362004583474,-0.3124915842646151,0.04205238904242978,24.751866408867347,-11.981378087908622,7.458965243570949
3840.0,-0.16558157651787228,0.0005499766837914385,-0.8123416284295613,-0.3722797916684392,-0.3448660590975781,-0.24479366049455492,25.751322863754798,-12.387450963337066,9.402139826471128
3850.0,-0.15680545821306635,0.013942849045488787,-0.8069084123042338,-0.3584117716077147,-0.4372988379246478,-0.8966992283365094,22.77203737609447,-12.42455825189966,9.006023045838338
3860.0,-0.159093606308228,-0.009357480015340498,-0.9153965697944006,-0.06231990623732517,-0.6955030478285686,-0.031154500225180015,25.510128952678855,-13.630000832506997,6.660135306373527
3870.0,-0.06785756428205827,-0.1584714268933802,-0.9259204870828696,-0.43751167188834783,0.017442875997339402,0.0854137246584421,26.4643629873922,-13.016135992168213,8.847961838620726
3880.0,-0.2180178192134803,-0.03002515054832694,-0.9306012906957096,-0.1834711770701054,-0.5403059258343585,0.7598879737337605,25.330989792330154,-10.105396443980164,6.748352345424602
3890.0,-0.22073244489162744,0.06403552546042378,-0.897018560469448,-0.42121542848723476,-0.3583800014791743,-0.38963023879347913,24.524208191605055,-10.247168861546372,7.320591911098037
3900.0,-0.23269353667340076,0.012057121808207623,-0.8828395531447015,-0.25251498429376557,-0.1820223150457535,-0.2878399188362671,24.185572446545454,-11.195982310018842,7.05408289377241
3910.0,-0.21746635715575693,-0.0034620238485475103,-0.8152940285098074,-0.4586526426999613,-0.6127304450582821,1.4984585010922407,24.66172082938788,-12.912396459786706,9.411104273663334
3920.0,-0.19250145826109458,-0.08768738223418787,-0.8420352728020825,-0.17199737023503908,-0.6996344957325354,-0.26579190737761477,26.545218636482666,-12.136951358815852,8.53453180178944
3930.0,-0.19555419456541162,0.011641906106475983,-0.8942377096354902,-0.4423978258694266,-0.15959161447919068,-1.109422122590126,24.481566430959038,-11.323255479809955,7.856706885786834
3940.0,-0.14827829484972752,0.05781471843261735,-0.8452905141326911,0.1736078814063084,-0.0027466028389357966,0.5292903616672283,24.130102251391676,-13.45481668665755,6.255777961712907
3950.0,-0.2028363366058314,-0.08575641951753324,-0.8987198922495794,0.5973685100365621,-0.05014361318753713,0.5605860740454607,24.559244966245455,-12.04500381358557,9.545131249761537
3960.0,-0.1712228738107136,-0.10462966496101392,-0.7067888003184428,0.6315796097739125,0.4019958389137838,-0.850216628161249,24.40999144477489,-11.820602904903257,6.796015142592235
3970.0,-0.11418379913048057,-0.033540365900841196,-0.5689262845455546,0.8936701742593804,0.9350623762813213,0.3143770627783886,24.023203437210814,-11.491540645659633,9.405034353884366
3980.0,-0.14583388716433265,0.025309609351973378,-0.518318556175841,1.340515991887306,0.8028629193025492,-0.5745791004599866,25.187460077030103,-13.18913234266899,7.529271969101615
3990.0,-0.07706181448377994,0.06894716344222028,-0.23603747217698218,1.3930393986745855,1.0879115039322007,-0.655169158543543,24.60959602878717,-10.882418982628186,6.634423620353595
4000.0,-0.1954053365318682,0.04311039512447964,-0.14181527630915391,1.7264883900854546,1.4502634153134148,0.08076717796472523,23.95653485556079,-13.510629551061758,6.782111483447121
4010.0,-0.01822088756385558,0.01860728911494698,0.03279472337070513,1.9323169929928496,1.400982821417674,-0.4821548946460426,25.247244746846718,-11.553147368152182,9.61859966984171
4020.0,0.01334002802526231,-0.04069191967616326,0.3219204426972007,2.3472379353151953,1.2721333596869926,-0.23212875963493082,25.992740457411706,-10.559221822898698,6.376485386246475
4030.0,-0.0462779530135413,0.04309327087542962,0.6168920782306238,1.7294540491140116,1.719564407817942,-0.6648046114713579,24.890665958001655,-11.002575924199384,7.212667037903732
4040.0,0.14359658176094153,0.03517624318768502,0.7744078739277034,2.0557154932598793,1.5730682138549896,0.10746850669564728,25.391815278611116,-11.92647985724449,7.234449431077369
4050.0,0.08798741057015472,-0.07317103696503714,0.9953196642733712,1.9420672373729166,1.5542194286783293,0.6627680959569666,25.1792877720845,-12.502842486390433,8.637734943734825
4060.0,0.11853456925840944,0.041345446383155265,-1.893440614955941,1.7356387064341687,1.2999172658683384,0.407575102886353,23.077445433813946,-11.893334108210782,7.849866790636856
4070.0,0.13607528901215557,0.05572691228723331,-1.8492298901459776,1.6968735107226112,1.222926781266483,-0.5120769532740927,24.29104152378522,-13.312894098754517,6.66170678756576
4080.0,0.09997024345179394,-0.018419580287132146,-1.9123794123039835,1.0512442069121906,1.3714843755291681,0.33160243942875056,25.787779356734635,-13.457452357455892,9.497510627359548
4090.0,0.10622321087171549,-0.027280971569195914,-1.837053033722509,1.1892558954647452,1.2530330116121444,-0.20286236711907535,27.1403244968734,-10.791929317526069,8.388338307543458
4100.0,0.1005450846015504,0.015923812696405606,-1.7978021939472375,0.8144709525452747,1.2035218925612545,0.40543164778755036,25.20926415421479,-11.28146536001322,8.575235414350113
4110.0,0.04805131902651037,-0.03726461586166807,-1.8896797056686783,0.6005181523457198,1.0323452138549707,1.0743645217526376,26.706059159255904,-10.391424154595228,7.294832170606897
4120.0,0.224463122632205,-0.027797003419992,-1.7959922493073834,0.04032018820832259,0.5170151698202109,0.6186856447262775,25.47475461532839,-12.939387123836262,7.548977340563473
4130.0,0.13002199131602682,-0.0026526318413921043,-1.8637931536468018,0.5375972976547867,0.28273820066664157,0.4016647473961289,22.40236364413977,-13.45736250826983,8.466905170167305
4140.0,0.16315305796941493,0.06533226780309535,-1.7323046465587604,0.6455850312263396,0.07136026925455136,0.2832768660595862,24.42357069294352,-10.590452461190795,7.972435446284486
4150.0,0.08980147899542784,-0.010444686256346009,-1.7852710970205474,0.068706524622346,0.24952028059863843,0.4574116478989363,25.49300437342499,-11.83924550650951,9.1906739845628
4160.0,0.22101578321232274,0.014455518665499632,-1.857334138406245,0.5691595985280198,0.43229954267302545,0.681960556430774,23.744071483140218,-10.976052194104666,9.055147239450386
4170.0,0.2553329616704496,0.060102035881018624,-1.8749239840226652,0.3508479314636581,0.29922135568998953,-0.05438929427582226,23.270510093367093,-11.92097974589854,8.990187033654577
4180.0,0.2657437519118913,0.018424883608798542,-1.7899465608941754,0.3610310954720739,0.5471406073354352,-0.16166507058132146,24.95417974045049,-10.866276543499843,7.2776146884742765
4190.0,0.16710647676962767,-0.06640930647080605,-0.8164969091548764,0.4584280596695578,0.4053350822342183,-0.06706714938704855,25.124632029459594,-12.268775649852637,9.066028618040239
4200.0,0.0997436616413406,-0.17528201428533532,-0.815929390489782,0.3775175696911187,0.38779955357295187,0.14756068459910554,25.332727802998964,-13.239306895295167,8.392539376326456
4210.0,0.3003238278577244,0.0617630361105042,-0.9423652892480303,0.28650976935684314,0.3277492822187663,0.5843079590673186,25.38514513217916,-11.434195173331279,6.308486436073876
4220.0,0.16083028967295926,-0.005880258057651707,-1.0762294512773927,0.3172483364823011,-0.009398482208965497,0.2908518957666956,23.6182078914896,-13.199770383398192,7.914044487301621
4230.0,0.2279944614146821,0.020008851339366467,-1.3283652774978145,0.06278158547027873,0.36693032394983355,-0.013201564523847187,24.761299186465983,-12.213043243958886,9.037264885285715
4240.0,0.09766600531580838,0.01565104314231642,-1.6181439175108205,0.18477923753303982,0.28695147047750136,0.28715487332145057,24.516362616208273,-12.59367590331673,7.533236061446546
4250.0,0.1935003664173608,-0.013391892111753676,-1.7737720124299372,0.2627490481624871,0.4282038421931626,0.356485540858684,24.131862026776627,-13.083486725413497,8.623830469744629
4260.0,0.12298778176019114,-0.026131730195416106,-2.1064512799582085,0.1150121861153976,0.2931882410269221,0.3373263580883527,24.146882225057013,-14.070185127260807,7.807494986761591
4270.0,0.08582247718496822,0.07174409391640453,-2.520321430548404,0.07043737344782235,0.32189323888888943,0.173552312086873,24.02414315990325,-12.696696036250046,7.83604988497243
4280.0,0.1656320815190856,0.07317194722376472,-3.0502409660362404,-0.06897255992087936,-0.11271787449859327,-0.16892725792468344,24.305610795078223,-11.30041330299991,8.823661360274997
4290.0,0.03421054983406772,-0.08387460724517522,-3.2808034560229316,0.11394049643122439,0.39819483135808154,0.7163450991754806,24.876780154014977,-12.528090130815626,7.476405765843186
4300.0,0.054436035057072854,0.037532735491663125,-3.6594377612373212,-0.10878646386815513,0.12637044499534117,0.35057426541856684,25.679637524368168,-12.369390258632409,8.85319410082753
4310.0,0.059900349247711315,-0.0653250657873203,-3.978977300668153,-0.061484185445764686,-0.01272188008053738,0.3739717189164874,27.013593184538927,-11.548793083476935,9.244036049740288
4320.0,0.03243130599222993,0.04668821893894893,-1.0392444268945817,0.2570400494666938,-0.07583141767294646,-0.22924496470550224,24.12370384493405,-13.571249022313872,7.602386527347451
4330.0,0.006529059370817644,0.03422354391063274,-0.9838106642958194,0.12120510956996258,0.04625357082552533,0.35832772328134255,23.494798278108142,-11.714339490735293,7.438149294089866
4340.0,-0.05175054913287308,-0.03964768505997952,-0.9420399157729106,-0.21198643282887425,0.1695239802479087,-0.4140276763577389,24.893967547754947,-13.386249198407501,7.428462370614953
4350.0,-0.1003920432209434,0.009559698692400576,-0.9655074099682068,-0.08177718479754854,-0.31050856121227666,-0.0317810022057822,24.40038717078537,-11.122924459641329,8.267132367954837
4360.0,-0.0639040322676055,-0.06653135331690672,-0.9630466632435942,-0.3195749606715532,0.15893887938515136,-0.08186271124578104,23.39564628909414,-12.226687016763423,8.912336245084528
4370.0,-0.10333497661651539,-0.018834757841309325,-0.9118575219325201,-0.15816559750286305,-0.23526914417893635,-0.06018289394044846,25.87685841696985,-12.531138391851618,7.9250200182144726
4380.0,-0.22008614083071718,-0.08226028441552083,-1.0165330422498795,-0.12422755750589151,-0.23218338647649134,-0.422921242792654,24.141160366329576,-10.356059883282104,7.662447815535673
4390.0,-0.14894746018035254,-0.03205792806585065,-0.8720358425872214,0.11494589760913004,-0.23158739436915013,0.18452732692287027,23.22508022738473,-13.549804213303693,7.477206243233862
4400.0,-0.14979994813895714,0.027144095983425938,-0.8373281405645483,-0.09933865759264845,-0.17710594537143406,-0.06562402831748713,25.0250055538588,-12.260552270841645,9.000500294321334
4410.0,-0.10541705445515079,-0.021789783786563575,-0.8981128095882094,-0.20754957479744085,-0.4219985431774512,-0.09423564737338498,24.3560346739774,-12.298936223418735,8.671755611835236
4420.0,-0.19322314320123557,0.021102747574758912,-0.8560477592169179,-0.0348255362912972,-0.2661553132551947,-0.3657939423994818,25.175872967006104,-12.246236836853875,7.369160804092362
4430.0,-0.13667532359994125,-0.060358414131750596,-0.8177782279463295,-0.4158378880518444,-0.2860463276718167,-0.0868697475245101,26.48824423728325,-10.907984052610466,7.202650425593382
4440.0,-0.13737054681936323,-0.02629248269044095,-0.8826428066724871,-0.2956080024844046,-0.5070750664776255,-0.33813469765338877,25.861845169229646,-12.010216310184356,7.889039718563747
4450.0,-0.1789366689854731,0.05238837269282488,-0.8632691748586314,-0.43222766725473655,-0.25899101012014225,-0.233048333778338,23.550588529168202,-13.279919634831371,7.765497492679721
4460.0,-0.15603232566959863,-0.012141540490324267,-0.9727969923445574,-0.5093709261023345,0.11030766817383242,0.16846004799641007,24.1943637537896,-11.49210229054578,8.631567155636354
4470.0,-0.2825837974752621,0.003986972792975087,-0.8591310097231073,-0.3894161868993211,-0.15061737559785876,-0.15212414033210714,25.63093332161209,-13.082114650426462,9.870010301685175
4480.0,-0.17294310039301566,0.07187173914410734,-0.9035146614792429,-0.1261102709769476,-0.21150483448270643,-0.5073672686270507,23.24396428421301,-12.60495755744682,7.561958029444962
4490.0,-0.29048027072174953,-0.050868110750932186,-0.8806943840919225,-0.2897613174516052,0.037221278576901995,0.3555069724792146,26.457650847940176,-12.908213174204224,8.290361264800104
4500.0,-0.12457060939940179,-0.012100509093528805,-0.8475201356774043,-0.23718320476781324,-0.6065700758870326,-0.3462331427593365,25.477058226425466,-11.169604127159305,7.664990539655869
4510.0,-0.28347373808713655,0.008328888763998931,-0.9240085793380899,-0.4373386228089018,-0.31031842924509956,-0.1649744430376484,24.36787755018614,-12.510099812794156,9.507260363782033
4520.0,-0.11885752209158612,0.07215381884514525,-0.9603468892233222,-0.4049345942526611,-0.2995243407086589,0.27388824917743976,26.82031523480033,-12.749261500958887,6.932775099676442
4530.0,-0.11803917715128628,-0.044910004390528446,-0.9371537819942684,-0.0770812815184097,-0.5767229956118859,-0.4708249411257067,25.554315583953052,-10.602252243528861,7.0430557851607745
4540.0,-0.09655814525740677,-0.07092640934978466,-0.9562123249190005,-0.1211722548557595,0.09723861473326684,0.05198150526215553,25.175136312645503,-12.133399293249227,9.309263488131721
4550.0,-0.13522034353038984,0.013387400016568868,-0.9614877080222098,-0.4356663488968713,-0.023595989792861066,-0.8930288631507683,24.074140865544177,-12.738627788854222,7.310971404128228
4560.0,-0.05160328913183454,-0.08721514664113443,-0.9741920248015965,-0.3239586295114737,-0.20537835364915843,-0.2417032805354058,25.443365810441684,-13.743027819309322,8.390472731092196
4570.0,-0.144952056300667,0.07429667292856737,-0.9811502938146848,0.013385846549917785,0.05981048836740249,0.6847833573456517,24.2565229975169,-12.80827853076246,7.409674372438966
4580.0,-0.018347312494772082,-0.0773320564157842,-0.9781589924336556,-0.11657366526866966,-0.34422987626268065,0.49859356363418883,24.952644557137894,-12.119822512138104,7.278978399383803
4590.0,-0.12752882374891075,0.0032225605235865935,-0.9876151091068889,0.29783172481816894,-0.24188617927470013,0.26085790230060063,25.721084929195666,-11.234490033708177,7.816317922560899
4600.0,0.09500429689983274,0.0610476028936205,-1.0265192003665191,0.3483228005442188,0.22998753018694212,-0.08604630987549493,24.16281541428871,-11.576703905503908,9.163033576085429
4610.0,-0.012369387384560449,0.08211686671143056,-0.9913523424808733,-0.09961576258613654,-0.06010642335910644,0.1995946327858637,26.152795297498336,-13.42422016363209,10.093788065125503
4620.0,0.06336112534140927,0.02679100414812276,-1.0064039261137774,0.14056541836854547,0.028333185327096146,-1.4614729893232477,24.487611223950648,-13.571250638179285,7.71543706903286
4630.0,-0.020674580593336794,-0.01680590904168806,-0.9268986437458795,-0.15585953618714282,-0.10073085755636593,-0.0060459440231580425,24.419446844785202,-12.364612966511917,8.894646265092863
4640.0,0.07197836737574116,-0.06715198168581839,-1.0276507264830743,-0.05125785884226207,-0.24600592031684274,-0.5206564877747604,25.82939369492236,-10.221437903471356,7.145257605696117
4650.0,0.12718541947704465,-0.09036350176852215,-0.8715953268769167,-0.19214097026804514,-0.01063518305105432,0.06383248998270186,24.160113387628606,-10.943487413626444,7.170414996044851
4660.0,0.13736350968558303,-0.02641787582027046,-0.7947908566370628,-0.1866203030714258,0.22712203812096124,0.4650247637413768,24.124718555027975,-12.261008263824097,7.9428493147756285
4670.0,0.17411186035767318,-0.02026552275695032,-0.8865019564434282,0.22510120499576186,0.3896214582627862,-0.13896056750335484,26.75303374528071,-13.23095620674955,8.785944425098561
4680.0,0.1612773333758557,0.050855426664428195,-0.8809336424715467,0.17977162252387927,0.22355182566340645,0.8871966645237864,23.386884561261272,-12.458096007367,8.679357323636731
4690.0,0.14294294251561887,9.980128055168841e-05,-0.8494796548176103,0.19019508658951936,0.3194833309407895,0.7500242834463979,27.196261123434365,-11.70903757618431,7.721309613392407
4700.0,0.24227580643080662,0.06494442250937059,-0.7736140973632424,0.35444207175544684,0.38231279701385523,-0.04067587334983727,26.609887812202714,-12.628726450105859,8.215172474286618
4710.0,0.17055747574386768,0.04930420534525786,-0.8646117088612743,0.10628110143524297,0.3832329508855947,-0.8920380810420525,24.93405528253074,-12.040544809485464,7.29212595959589
4720.0,0.20596479043595162,0.012167873526158775,-0.8535799125516577,0.5397329835488984,0.4772441480894768,-0.2585661504945517,24.671726393791158,-12.039422955367831,10.517780043237527
4730.0,0.14570025258802824,-0.061913325384403854,-0.8987507373059574,0.22412105009161867,0.0743746199622215,0.4705592501346768,24.690066159098343,-12.118386284480835,8.949256653258468
4740.0,0.20687459327301294,0.016499626364245193,-0.7711397278841909,0.2641877612821195,0.23217989685816087,-0.5172800075067272,25.070540024762902,-12.069510954603693,9.324782297931673
4750.0,0.15883950584826495,0.03961900852731459,-0.8892762250694168,0.20558110597700768,0.3117980649739981,0.32062744886022687,23.853489795058653,-12.113159451454871,9.976343291078585
4760.0,0.2020560671844704,-0.05788582496618616,-0.8317071927415896,0.21049721983430122,0.2440706292765434,0.9796270324971438,25.170102609002058,-12.153491602868487,6.390486360911041
4770.0,0.17948824110442232,0.030164977786955524,-0.8775841115866687,0.34528916592249653,0.15930400377111067,0.5238171132444678,25.27255243286443,-13.181670719400909,8.693549344726847
4780.0,0.2221917375599513,-0.05853671161351092,-0.8641089826402414,0.22988903264208227,0.4583257657595229,-0.04185523755953938,25.98162082595555,-11.972357850919634,7.397299649032773
4790.0,0.17399362611859417,-0.032625918203083186,-0.8743588004833738,0.6144266696025593,0.5319666971590614,0.1633120972852573,26.223209118021735,-13.555901487077122,7.369210676906603
4800.0,0.16022797010487821,0.006378723615185759,-0.8501468627309076,0.05044694959751861,0.6950529102286931,1.048173687165854,25.946661802337257,-12.715381684792991,7.687374344463805
4810.0,0.1412977450732369,-0.043258146393620356,-0.8835333079091792,0.10378081715395718,0.125546916146923,-0.10084133423309752,24.300253286863317,-12.148396677525506,8.919848185809414
4820.0,0.15766902103220942,0.03581151527217399,-0.9142019535019971,0.20844365299496023,0.37633820954085084,0.7030333375059139,24.47978812170694,-12.162481652538542,7.943571029802215
4830.0,0.04302687957863896,-0.014890984242991135,-0.8893699244477866,0.27010743840027684,0.2970634919205374,-0.06883780256126534,24.5391543568347,-12.846050043192244,8.179755741958456
4840.0,0.07906977764126685,-0.07160663331606902,-0.8954046138209014,0.06393260253611226,0.39330457530594776,-0.15938690701303104,24.736846053128826,-12.360625003517193,9.023246374712327
4850.0,0.14697262083453755,-0.10110242974497606,-0.8959488230309129,-0.11667868139833099,0.11273467408680535,-0.1206629716241267,25.535727913198567,-10.694658308708515,7.545545630259792
4860.0,0.1191715674396364,0.06445823937524782,-1.0456778570722678,-0.060497782239097714,0.2569762014239556,0.18801077584852066,22.417001642724834,-12.471346673037626,8.742815481386605
4870.0,0.007923453841146913,-0.0977040072737907,-1.0501182489061351,-0.057697038138276216,-0.050845703485985536,-0.2147567523969057,23.94520386648372,-12.314198958904365,9.660430019745387
4880.0,0.04226133745248126,-0.02032130208999163,-1.0938904855198623,-0.1720954296646743,-0.09108179556430936,-0.40017643199895747,24.388068520511936,-10.39799680967151,9.340159963439142
4890.0,0.058852605360954185,-0.01738458017564583,-0.9537026570222005,-0.017560117998522928,-0.46669287194443776,0.017840710271570356,24.89496282820728,-12.072055723756698,9.5527656465791
4900.0,0.03134418181233321,-0.1290727858488774,-0.9541045487450697,-0.29377838912619036,0.2350336745184441,-0.9797565629269673,24.729028330826406,-12.779121310256,8.4234702774078
4910.0,-0.007362661095757714,-0.0031319778877594035,-0.973465697021224,-0.3022120406823664,0.07779918478269524,-0.17330599670429664,26.431388860664313,-11.331166720672122,8.65725077279346
4920.0,-0.11412595371126796,0.08108223943792192,-0.9758444448203223,-0.43311179819439444,-0.19698861174135565,-0.15758886510692557,24.29033871663946,-11.347257936634781,7.884356186148588
4930.0,-0.20156136345205625,0.009780990661799022,-0.8991007121541563,-0.15595825377776132,-0.3882939320715455,0.09123070467275446,25.369808083463436,-10.763042880074643,7.7247151784571555
4940.0,-0.14492417109934908,-0.034642682720205424,-1.0018801174850311,-0.2510837315933376,-0.4433208436345213,0.08302208594451968,26.373198652213514,-11.709499527356634,9.505801897868292
4950.0,-0.14450946402459403,0.006000544656799089,-0.8567080855371606,-0.2943779743333992,0.11748285684806822,0.27289181596648227,23.127254046469364,-11.32408071566191,6.727196676630371
4960.0,-0.17877646965673782,0.018593334409697616,-0.9310955851424144,-0.43097198351846644,-0.32515663933848715,-0.06114614952585046,24.977372178448395,-12.939392429552356,8.759960014764319
4970.0,-0.15736263330583145,0.0016380053276442185,-0.8140920893065422,-0.708923682951238,-0.2289761725394093,-1.498129668483265,25.287959768111353,-12.292694562391837,9.377411548729997
4980.0,-0.1758611612027201,-0.039327789959827684,-0.8422995680240307,-0.29970228558380446,-0.32168285732656116,0.9050072641626967,24.35155456840256,-12.59738947251427,9.269102708239247
4990.0,-0.2289873117976493,0.046931345227725026,-0.9908872451478182,-0.5776946723015031,-0.3345936087201484,1.237474146480129,23.76482936487193,-12.054771883620031,7.33414145963097
5000.0,-0.2146991897801235,0.055490230661463115,-0.9136475533444874,-0.5652977366321353,-0.3212728596927774,-0.053449752420486246,23.756084210318146,-11.057739368448765,8.034349187812902
5010.0,-0.2384923805490705,-0.011239208339312683,-0.8452907767214662,-0.41879383611278054,-0.6217957922365711,0.4821396635558811,25.6241229162549,-12.416733597942136,8.748337951468192
5020.0,-0.2569283608247435,0.011710605630619684,-0.8475274879899234,-0.14440151810248086,-0.3340655265274467,-1.107168833792623,25.58578430602813,-12.550168360023177,7.27873928589468
5030.0,-0.165130876891205,0.06885910609678388,-0.8898498120438222,-0.05503169768790034,-0.25616352766598394,0.21515457997915644,25.636622028644574,-10.81124941928755,7.724954410220542
5040.0,-0.2365801459708928,-0.01340365606940586,-0.8594555070642296,0.02343826059652404,-0.5209997715508965,0.2888850804983955,24.81721791068286,-8.752288583725395,9.11217769699878
5050.0,-0.13636889955390122,-0.0031095949545443067,-0.9064211677165592,-0.19238516449511062,-0.8271326931768679,0.5987432078244438,24.94557559671053,-11.93839941478932,8.45473072131313
5060.0,-0.07607874662317318,0.015226639793005148,-0.84551834648009,-0.043417464311475196,-0.32164903606893996,-0.7580227536094959,24.757946545564526,-12.008046366338801,7.286339080174095
5070.0,-0.17463684011762684,0.012745824937700476,-0.7909355255816204,-0.03939337100064738,-0.6185578555900747,-0.5884724113211042,24.202182357151788,-10.542109617540122,7.722929151667445
5080.0,-0.27854133170970563,0.030349325355682185,-0.84205048849653,-0.39932941509872616,-0.732619785904689,-0.6777312653817855,22.881100872762545,-13.307355909297044,6.3267909307485795
5090.0,-0.1324798997966624,0.03801789297298713,-0.8708180767814417,-0.2149366226434747,-0.4832740323582636,0.2085350968473466,24.511250626460303,-10.952776629954187,7.762459180078701
5100.0,-0.17097618361582362,-0.0489493556344367,-0.9424221337093078,-0.3252377296445999,-0.5139485094885808,-0.27199143508171986,24.66554385181509,-10.830612070762328,8.004563512162017
5110.0,-0.23250966509069526,-0.07035141475215406,-0.9730145277884119,-0.18652935697989975,-0.36691807309018815,-0.016904150670663448,23.107430245141398,-12.474437971548385,7.426288262845828
5120.0,-0.13324071160185638,0.049701477785293866,-0.8294079660148553,-0.024842367572611573,-0.5335101973821452,-0.7467336063977214,24.679660871122667,-12.810444889709926,7.85211035521597
5130.0,-0.08387102144796199,0.020225481482315896,-0.8453433337309127,-0.06807117709480404,-0.6045834343953281,0.43984247577625396,23.52813413134236,-12.1919322014351,9.232282960975445
5140.0,-0.026632794078990316,0.09691291940358839,-0.913624444917826,-0.0006797108276459796,-0.06652161878261614,0.14837853716243868,27.503453035477136,-12.801005749604784,8.710310534215049
5150.0,-0.02151519781634422,-0.001070304011676831,-0.9443937126219115,-0.16572825813492975,-0.12983732808986637,-0.6526543618772508,24.216464579286505,-10.7075859298304,8.667656958592836
5160.0,-0.02063199709745885,0.09062562893038367,-0.940089539881597,-0.09954233638936394,-0.31950739555491986,0.38412027753755607,24.999146776032962,-12.019585458800565,7.537096704669062
5170.0,-0.032124120258789086,-0.041280740129041635,-0.9723813495517786,-0.2904922050887948,0.06373112667221861,0.32849685076555757,25.407076864819988,-11.756473649136426,8.778921073198259
5180.0,0.03617291551558513,-0.05841361262992545,-1.0174373858093841,0.17579220387486674,-0.13121369169327227,-0.40524485600330284,25.394691702000483,-13.292263792771475,6.672278572044727
5190.0,-0.020271338892320627,0.05559030700105111,-0.9729821996111166,0.011581771346308065,-0.009862288890320987,0.39014503244131193,23.58268649171821,-11.664090848259697,8.060090849267763
5200.0,-0.0014980703055849712,0.04478021463071812,-1.0246825946066944,-0.1883289023453917,0.25396146404349834,-0.06114819549485603,24.784515484031587,-11.573979385563785,6.932737569182371
5210.0,0.03574816034148893,0.028742749985065222,-0.9274979676997511,-0.12751911066391602,-0.5719506433564608,0.3999221387886302,24.774407505439406,-12.91641129717079,7.381022066613585
5220.0,0.09775547853971733,0.012944930798576032,-0.9473868345680565,0.19222472003911742,0.1617060104489214,-0.06305206715370007,24.34056691331085,-10.46233427065311,7.0285833180155795
5230.0,0.1084171010841131,-0.017920907945597014,-0.9029911351920453,0.23153795538059768,-0.020746108301511634,-0.4712844934142687,24.494199447129713,-13.06079433070329,9.246623470624142
5240.0,0.11162730715477971,-0.019154150707839906,-1.0662299324873525,0.06592322849743357,0.22176537072128266,0.3381706717593723,23.578791417220575,-11.909175119134435,7.743341852356613
5250.0,0.23593343006760079,0.016788540612533414,-0.8958659709787914,0.32020577862239624,0.6545948700731554,-0.31901872048121827,25.790605296396556,-12.475134180547863,8.290192387330663
5260.0,0.11514067098059111,0.037924634419252805,-0.9508616331684274,0.5387344055219654,0.48668778874896035,0.11792078996429921,26.223252532638725,-12.059742279237364,6.997565715065151
5270.0,0.23017311329752466,-0.031196412429674716,-0.9665536040600362,0.4766337545108488,0.26217888673829887,0.060377472840590446,26.368709313534232,-13.687857248120093,8.774758687475304
5280.0,0.11104066607633914,-0.021528601245679315,-0.8519853881482438,0.20309728983843608,0.47338630589429964,0.5286479684602872,23.083726791897256,-11.974482662111404,7.662995080262276
5290.0,0.16480461640693117,0.0015407360127943324,-0.849745033736672,0.11724500896049023,0.23676335835831117,0.19293834594004766,24.312884149790204,-13.056576499649164,8.523651966645128
5300.0,0.14916278602330282,0.00496313552431072,-0.847543324767216,0.26531828972847105,0.11687439058345772,-0.16295559104766177,26.37292724395042,-11.15385310595978,6.75198769034451
5310.0,0.16519955734979358,0.025689232569732375,-0.8643958596244096,0.08347158177031627,0.23013709234436203,0.7859901710848618,26.535557867143726,-11.622099780371789,8.59285036137664
5320.0,0.1250804240879923,-0.0039118329289033835,-0.8703594278687612,0.322292507317118,0.4422136907003163,1.060696419124971,23.342892269242796,-10.642142034528128,8.559080540119854
5330.0,0.21392757486742106,0.09405057855936766,-0.8927653308156962,0.011198364328475374,0.4299374579485968,0.390133416535165,26.367770335185707,-11.474807723581485,8.865015685450874
5340.0,0.198941398835302,-0.002614521169376027,-0.8282951642478821,0.652718183239765,0.5273518009201111,0.43824733405194827,24.82153616686638,-13.488617242097366,8.32086444449546
5350.0,0.14608286333019355,-0.03356569308435556,-0.9321124101628001,0.2504244633657612,-0.15213746591984895,1.179857347970013,25.233473836903496,-10.902376916461632,11.038160290103923
5360.0,0.21142795400873368,-0.02134860319751803,-0.8630366043979134,0.10151666743915946,0.46458509589587554,0.5691406736585941,24.60716629739894,-13.26426628110329,8.748392997948192
5370.0,0.26892233681038785,-0.10039942281650825,-0.8506171866384742,0.04784752712229706,0.22502115593713543,-0.23614710750472803,23.656729661638686,-12.0280862038685,7.577300948284317
5380.0,0.1880048470196539,0.03129006614134925,-0.8663725604241409,0.2572011245591386,0.7324198673557774,0.47998027617818984,23.882416553097713,-10.877857057969083,7.603150160449245
5390.0,0.22218993749717725,-0.042546922501609366,-0.8753343078601529,-0.13396945449948838,0.21758414576920682,-0.4683567041129123,25.35970006097169,-12.001886133255157,7.4670847094618376
5400.0,0.16660231337529685,-0.04068445717094113,-0.8383760720933492,0.10270837903097454,0.21345055631305138,-0.7945381893403214,24.734124996041476,-11.309334624878652,8.241713116241803
5410.0,0.2007483986980298,-0.008520451569143038,-0.9042035367276121,-0.1225549365680974,0.3154203890531525,-0.44100368109407695,26.158919237154556,-11.431543987119424,9.579071885046597
5420.0,0.09003483964613833,-0.022892309996902952,-0.8444604266369657,0.6313097263893055,0.09957702299532231,-0.9247006334166883,22.990786821514654,-12.901498475257158,8.461237795927332
5430.0,0.07546511057344417,0.06032797723579478,-0.8905612876125777,-0.17361810700548416,0.08408131897528046,0.019405869112951307,25.171309245159964,-10.936497891520197,7.2834474499530355
5440.0,0.1262492929036423,-0.04367947906935368,-0.8851463885644606,0.21069594158827815,-0.05413383018247278,-0.8171012226611758,25.778195733850293,-11.277407111788893,8.426585876095308
5450.0,0.03323844313619569,-0.0189692956004007,-0.9792994550087205,-0.09165431163656118,-0.028308223122206086,0.1487728649653561,24.257354863926697,-13.528669166812149,9.21509097042547
5460.0,-0.00048071794983367555,0.03108611983720727,-0.9283618440794603,-0.1341515343286122,-0.2863309183777431,0.05682460251322613,25.564226919236738,-12.845081674950505,7.052519410420686
5470.0,-0.01944764993801759,0.09388013991381766,-0.9646995940555577,-0.06352127876568114,0.23437427549673567,-0.9407386524778462,23.93418990656581,-11.80869343964081,4.949140817041526
5480.0,0.011193180908744608,0.028879017332469004,-0.9710639895230343,-0.08433751549937173,0.12880299901127462,-0.121904591814399,27.07615808952701,-11.882030242357006,6.766066218844136
5490.0,-0.00841273478012864,0.019979912869983515,-0.9250086884948621,-0.1360377698986578,-0.10785191804100354,-0.5816224877264891,26.30432238534687,-13.667820050791399,9.344995652376381
5500.0,-0.1548133629053121,0.010633796380400498,-0.9510180604828263,-0.3669964606624292,-0.27723532587158484,-0.6064995477729034,25.950895927599003,-10.345590504853778,7.96179485657983
5510.0,-0.09649981844249875,-0.03164711238054691,-0.9310656716894306,0.03274485407823448,-0.5201174047040554,-0.39852744344340046,24.98970221698678,-11.85709409715305,8.754813182476806
5520.0,-0.08503265533767475,-0.03178048953756482,-0.9273525429473982,-0.21780607524433276,-0.16018256029230032,-0.3851883903167542,26.939448957525734,-12.003709455664266,6.968600481289828
5530.0,-0.08386018626053543,0.06496876422953528,-0.8018599415836458,0.18951070602404044,-0.32467178700149313,0.06036997316432936,25.592852483692003,-12.025872372647028,7.815234828170802
5540.0,-0.07945151222394903,-0.06609499202045413,-0.911915136010032,0.049627412641968766,-0.22951092593335098,0.7818862932428015,25.75151849146661,-10.967057221974251,8.452714373941628
5550.0,-0.15729260154625063,-0.011054633344102248,-0.9212745420652562,-0.5376366057103149,-0.3656218277092565,0.08912267130741106,24.889108182251633,-12.754935784208081,7.579133583608157
5560.0,-0.16442647867523133,-0.04785036455081698,-0.7786431737106674,-0.16184460359206715,-0.42704328296394756,-0.24089952904860984,25.394245031433307,-13.245138147143686,8.42938386374814
5570.0,-0.22319711093650324,-0.03998886468425877,-0.8736985440195513,-0.39525584134134606,-0.11408258949830657,0.5142295674225428,25.56881581651687,-12.664994607105857,9.290270594016134
5580.0,-0.18269549358505432,0.038693883499393074,-0.8561307424538052,-0.3205093823900105,-0.43303185742540506,-0.7445649846842832,24.10641443127192,-12.10198639124918,9.626184729380864
5590.0,-0.09475758421704941,0.027884191668042842,-0.8396756649808087,-0.3462811101246138,-0.42896978955452925,-0.7782572991795296,23.878642418002737,-12.3988475575926,7.786407291654362
5600.0,-0.29705225037793503,-0.005147838897637284,-0.7517067670236979,-0.5554001442262287,-0.7897596053833549,0.5954427146020029,25.89709039087425,-11.56495720630369,8.182547701921903
5610.0,-0.15535766555233058,-0.006477411197135373,-0.8570168370349218,-0.2904121342871437,-0.22885646871617726,0.24466930479862165,25.185595556163175,-13.04959028107619,6.306403606001454
5620.0,-0.2519874195678084,-0.01846756799875706,-0.8682617634237262,0.011681876747849262,-0.2625656521425069,-0.23640887017027856,24.846093858509853,-13.201934254660156,7.421502352121769
5630.0,-0.17918258912944027,0.010623861756863641,-0.8091451258987787,-0.15721297135180723,-0.22213678794364133,1.58532682250865,24.746840870290875,-11.14074606509894,8.105037681664909
5640.0,-0.20879134312111883,-0.018059712284500637,-0.7894942372526524,-0.3667125728836506,-0.604373651155362,-1.4228037391265715,25.487080335229905,-12.110212193760937,7.572499890116886
5650.0,-0.10300923191752227,-0.06957945562510014,-0.9503052055499297,-0.007995477395643102,-0.21877439395590412,0.13707583230540307,23.785422590104673,-13.570359016238665,9.462998301707618
5660.0,-0.22301457055804474,-0.0007837486058762232,-0.8611643906101687,-0.20260490767515127,-0.1835884532974435,0.4118836160652104,26.070775729324676,-12.619549368608828,8.912863346290155
5670.0,-0.1783510298204214,-0.07049070380690903,-0.8873760864241379,0.02915303949970824,-0.10647281693715238,0.2240380194149472,23.59978265690385,-12.404796935874895,7.041947942272913
5680.0,-0.13983145243268957,0.02608867085509945,-0.9107598992629903,-0.4903388883332111,-0.23473717740577138,-0.059747444942420666,24.506325036991058,-12.03152059539365,7.989043835149667
5690.0,-0.10958545154437582,0.03636577644024281,-0.9090224411770376,0.022747265982946213,-0.41327930795921486,0.8864993133972915,25.03961975371659,-12.704853503682946,5.899418913613365
5700.0,-0.06864416624689827,0.017192991964207423,-0.8996782008901925,-0.08189480798557149,-0.296577562328303,0.30108264627799647,25.278021234048808,-11.750148699512884,9.351794497629685
5710.0,-0.050345673783682286,0.020961544148179828,-0.9486696578901777,0.0970909739694138,-0.26014857560799276,0.48609604756095337,26.225351514096886,-10.759997829855687,4.931901873887897
5720.0,-0.06951415823305723,0.028856534533988922,-1.0010477531363002,0.08640379048380539,-0.13385318603055593,-0.4212282478621251,25.74043051066291,-12.23473932381123,8.196213653013142
5730.0,-0.016444047375389313,0.02849495494688034,-0.9734110081554419,0.022568322043190175,0.11395924668068488,0.39836818716197314,23.434591949664004,-12.344323353023594,9.508739070272348
5740.0,-0.10011178265027612,0.004712500670423302,-0.9949192825583171,-0.152764061270723,-0.1003876500436474,0.3032087610132803,24.430706171494794,-11.844988753378681,6.444334191309856
5750.0,-0.052108862979240236,0.010567358551882882,-0.9791704829698705,0.11721622330238668,0.3117188502703735,-0.055758856916547014,24.920596501630207,-13.186029460438789,8.122477627669873
5760.0,0.033900422677995694,0.044487035030457006,-1.0679601816602542,-0.14300983547322574,-0.21850603104066013,0.053891309653259424,26.29304967942534,-13.131135285506588,9.50710055525144
5770.0,0.0434827205623054,0.029874388780708284,-0.9152376325643783,-0.025176176707208064,0.10814406412769695,0.1280617212569814,25.549994184551558,-10.967415684945578,8.978657853430922
5780.0,-0.03142616547934149,0.0614000541370372,-0.9544690057373848,0.1851164738787877,0.2386936595978231,0.4665881116885974,24.15403726814215,-11.58230718081786,8.017531877464014
5790.0,0.14417917712405678,0.022912971487525437,-0.9655052652593328,0.49516297899386486,0.23259967406818066,0.013763197920872924,27.032758014044763,-10.84193526397682,8.933968365610545
5800.0,0.04498698325683334,0.019974393341931917,-0.9800142000581197,0.24618286464824718,0.1462471799387477,0.1093898489076469,23.547247468894057,-13.532341362398823,6.313578242979108
5810.0,0.13942826402878786,-0.08739374208650194,-0.8370578027917442,0.4729080821532936,-0.0574717101264908,0.05014976095693446,24.775910825263605,-11.635045201979816,7.1433274058099325
5820.0,0.1263087110584441,-0.010643609170947952,-0.8993956998930951,-0.02391079886350128,0.3103219409993657,-0.28928693040801035,22.250253491710186,-11.509770483089044,6.635188705018118
5830.0,0.16264795837718554,-0.06258974530674247,-0.9018713773678878,0.13943659107722828,0.794190355981889,-0.6302100141198334,23.67219090968055,-12.002247159154145,9.540790790843815
5840.0,0.1839820726661072,0.017975767943533456,-0.8694868538485587,0.08268064282789064,0.42905969612699957,-0.3431002131694666,22.62541678877146,-11.400246640056087,8.313945904660894
5850.0,0.1850332852132873,0.035354678577977965,-0.8029158164937507,0.02929308464555036,0.3885442855925716,0.42164635019764174,26.59293051778942,-13.277830443417507,7.4846582008755504
5860.0,0.23475841533749608,0.010582067506741543,-0.8405761711808023,0.18835825121155997,0.6981292005651474,-0.09095948085426556,26.385088471281406,-12.818590643250316,8.57568156343834
5870.0,0.21495930702091257,-0.02984842251230853,-0.9078892906694472,0.9796025052690482,0.6983268631960041,0.9843287224962884,25.165636815927957,-13.34611942142762,8.555253770664343
5880.0,0.15905252368370545,0.0160320833856081,-0.8060127957893065,1.2379114500033128,1.2048000160315584,0.005859053385211643,27.348893646794103,-12.629592040642848,6.645930554669879
5890.0,0.2897367530225142,0.0007016179836048083,-0.6536695198050224,1.077167886931593,1.1147998972961908,0.7465875004966602,24.816541250314838,-12.472331792434511,7.506540624565213
5900.0,0.21809681209439977,-0.041729901983191736,-0.568477494982759,1.6594053347790658,1.4576418588835915,-0.432114832208736,24.640621880831567,-12.002824339902634,8.21856617116278
5910.0,0.20194711607765156,-0.05418675354134703,-0.35948554022649176,1.732253239515172,1.23164992197571,-0.06697651995503417,23.459419402282943,-12.196282265084784,9.481461017654269
5920.0,0.1828046312740722,0.005973492070836303,-0.16612247933480428,1.9453656456355324,1.4830080560920362,-0.032584955121509246,24.830517374827274,-12.96055681139152,8.390424939412139
5930.0,0.15175611573495518,-0.10532370529648356,0.01089046448084215,1.8023800715427833,1.8515016559683184,-0.3270728909439654,27.149321661564187,-10.10994999480545,9.637760614721513
5940.0,0.17260463493428305,0.022336523972585433,0.2092712322580467,1.9817829332251793,1.7782342281760077,-0.20816546543001535,24.913639504967293,-12.780391828960118,6.08050343849498
5950.0,0.061454362682836494,0.0055362144216867274,0.4180869087540362,2.1106630066521435,2.0676739259245935,0.6937066596687349,23.698794360007785,-11.809192532880681,7.511777801926008
5960.0,0.1790454355677612,-0.027876382063615812,0.6883941656540483,2.3587240651789902,1.697927653750753,0.15628585630387196,26.445065661317134,-13.53506546878302,8.671180465733562
5970.0,0.1593703023839807,0.028843781708850942,0.8527244601923439,2.0645171268618174,1.775718588532383,-0.7536147323426015,26.471686057221245,-12.026275985820549,7.948488749047429
5980.0,0.1849848765146161,-0.10414709106032449,1.1800583083830576,2.199804376637746,1.544171340192008,0.6761109908109089,24.659021631760393,-10.505120195517032,7.7429735671439275
5990.0,0.04019963923802,-0.02939081375378251,-1.902816801037106,1.6867104214327142,1.2778371019955785,-0.593972652247855,26.31756562579446,-12.400898944444355,10.6522896627487
6000.0,0.04601407981057672,-0.041574144883648835,-1.8071826638373876,1.542860288648038,1.274430795308377,-0.2544507295734646,26.325228607749466,-13.316564091787903,8.01220353732428
6010.0,0.0738604759298413,0.038242524169329994,-1.9157260962336358,1.1030258159054824,1.0309225052112105,0.01065330235119935,23.61357890626571,-10.287402375168245,8.604667166102686
6020.0,0.045617455585365674,0.04868326647250987,-1.93513366756254,0.994752854228491,0.7608896964525216,0.33409309980653246,23.97235082698139,-11.820311791237543,8.351486448160907
6030.0,-0.021903722529302422,-0.01814420651604996,-1.8417449539784783,1.015458600361992,0.35499570675257,0.49471814176947393,26.288222811647593,-11.290389784338766,6.905681624722144
6040.0,0.021731159430456934,0.0032424645143852323,-1.8987104831469992,0.43416502024331466,0.34753264126754496,-0.1676807193087667,25.36938788561048,-12.21150311892797,9.287386073224479
6050.0,-0.04210583619288994,-0.017849262847998648,-2.0162056344667816,-0.24805200188173318,0.1164552779306456,0.2552089472106389,25.216714930432715,-12.958341478208787,9.490903361813448
6060.0,0.012540941762443622,0.02957470882787512,-1.9163977175552183,-0.2267312556141758,-0.34586566831713644,-0.3057785974170761,25.345116125466657,-11.588824210444708,8.23661747797106
6070.0,-0.09773281492860998,-0.01796497470558325,-1.9557501955625278,-0.12747104432774972,-0.1423614278082844,0.6944324727903226,25.456022186993625,-10.945931852861046,8.258284244199077
6080.0,-0.16623015350995513,-0.07348133780136738,-1.8655856583814272,0.17569467153133667,0.28875468496309376,0.05785756521427789,25.041498565548792,-11.048511093856224,8.57566473060802
6090.0,-0.06292414229931112,0.05059714702313728,-1.9232139125518035,-0.09130800310850606,-0.17483452036882802,0.45698750077501754,27.226099890789534,-13.218830310020449,7.002242116715037
6100.0,-0.1730231559494049,-0.0404045595483143,-1.8887628084615933,-0.03501304244469236,-0.31549076351258326,-0.41155237811498435,22.86086869102309,-10.679295579752658,8.34919161454131
6110.0,-0.08841868440274342,0.030147691816991964,-1.9551817705883918,-0.2606322902998048,-0.4209628950044924,0.016023259322536787,25.692288168528723,-13.325167850987942,7.928725424674834
6120.0,-0.15396233158850037,0.04970333030403996,-0.8733085708167065,-0.058650629969584867,-0.4028442605429515,0.05450359705813673,25.28629242341735,-12.142114935482375,8.951305599613926
6130.0,-0.1813410189570398,-0.036030310771253155,-0.9339768142947081,0.07868527542377438,-0.17252801454634012,0.08056106072545521,24.794592438340633,-13.158515707355596,8.233326651798873
6140.0,-0.2858011544372166,0.06379093669134998,-1.0107132786302009,-0.09072754452274481,-0.11634410877294066,-0.0787200092478683,25.699694204556987,-11.389806954497075,7.457573171796669
6150.0,-0.14046461179176656,-0.007210975184101957,-1.132312102250497,-0.5401421415098946,-0.5672888855390014,-0.46085151315256484,25.987804344843102,-14.969535314431997,8.425214532841657
6160.0,-0.14971771589749597,0.09645463614784162,-1.3077611658414632,-0.9456283987998775,-0.17091641629262608,-0.21831889091666415,24.43204609252557,-11.616692661999638,9.509047148653945
6170.0,-0.17137129063865247,-0.013002063892144314,-1.5218642120503456,-0.6165277480908604,-0.2724446924972884,-0.09046647230036163,26.198095122204624,-12.85430056694063,7.373440824077354
6180.0,-0.191210475457277,0.01322433690750216,-1.8378563898255942,-0.3816770068507411,-0.6095658336750397,-0.6259426591556747,26.66478441346456,-10.83973439799742,8.441008569176644
6190.0,-0.24075865414484027,0.00647208913732374,-2.1314574603021246,-0.22321338073790487,-0.6350667795562149,-1.1025740447191503,23.056287909753017,-13.995595503275009,7.417646967703548
6200.0,-0.2386482180692382,0.023758259022991814,-2.494876440044946,-0.3224611850205644,-0.4477820068542667,-0.24264538304158445,24.738779182284382,-10.82408780388319,9.52731509564737
6210.0,-0.23053843233120924,-0.0011877413158931528,-2.802119612914312,-0.12135715507942862,-0.46550314825125616,-1.0835542501076294,24.69749722556158,-12.249114709555412,8.418186964147786
6220.0,-0.12876214324309998,-0.06643448403469435,-3.261753498590361,-0.12809000984893026,-0.7021210508255912,-0.3603741666236723,25.108327884427965,-10.208956604925918,8.973171003807744
6230.0,-0.0985762512023079,-0.06576506283259409,-3.5751034883376387,-0.24996763413999074,-0.4298943868112933,-0.30888750120435315,26.722914763182658,-10.879805420757625,8.449889493905298
6240.0,-0.2086183969788933,0.042891980245129246,-3.843055556463704,-0.010724994139720362,-0.10330027391702454,-0.6505548614507317,24.400472709359924,-13.05495910636841,8.394341595739998
6250.0,-0.18588549577675662,-0.008443838060874868,-0.8648569098738175,-0.6061407971126745,-0.5634993169609295,-0.15851239160085423,25.294585012324294,-11.119373760765074,9.278735035046713
6260.0,-0.1421041548890753,0.014411627084422382,-0.8780215005389873,-0.27027651180471907,-0.35850559610689786,-0.015553315986318733,26.05578564235713,-11.905095874185529,8.242841356114603
6270.0,-0.13604139750908767,0.03719824221810374,-0.8843753769018965,-0.16715202316685351,-0.45694278629439355,0.6286984173856356,24.424823305045066,-12.749528693655972,8.530822616911474
6280.0,-0.10655018089705803,-0.017367497427859164,-0.8583105752973116,0.029745962665384595,-0.2029189204401394,-0.9895566448520072,24.556215414108195,-13.27652710873313,6.223348148325014
6290.0,-0.11506763516530329,-0.04246771597087888,-1.026500137847762,-0.28061033830236193,-0.43792145038244984,-1.0162371815133784,25.71071171612228,-11.475198864429537,8.847109455204892
6300.0,-0.0936652630420034,-0.0512695469150557,-1.0484584983975431,-0.014984839822230117,-0.18385868452914556,1.0016842724151187,25.28614875717223,-12.49884856693288,8.6747502099755
6310.0,0.006149385436353974,-0.015246961138612028,-0.9748401480000835,0.12354591960733982,-0.6072931064785019,0.36882626245044814,25.272447636373954,-13.291150064056026,9.293318159243348
6320.0,0.06969524850720954,-0.07723316596968009,-1.0369008389106031,-0.01441543588444047,0.057476416644530376,0.31896186876200466,24.562679860065266,-10.907680709703484,9.840556246097666
6330.0,-0.06337070731052677,0.08733131883406836,-0.9700608585755507,0.13202184077772797,0.09804820683528889,0.013819472385058852,24.78302168748953,-12.914328499475886,7.652617147489849
6340.0,0.07983656101280996,0.04252598723805316,-0.9827717938242568,0.1940521322525894,-0.2921164372014198,0.6944178376643624,25.134390864274657,-12.258482029941435,8.824622753963562
6350.0,0.09294644986008792,-0.06695939100754653,-0.9890575214635287,0.39375061126795596,0.1186882602685917,-0.5799217089493087,25.631502249185374,-11.73796779740278,8.16489139177209
6360.0,0.1468148548241824,-0.0008494705680253793,-0.9981063153146352,0.14592696380218081,0.11512160412948459,-0.10284118786862367,25.96793571624569,-11.542030518481877,8.51497034244196
6370.0,0.009530323793677478,0.002720123457111128,-0.8983488073365729,0.11702244832863211,0.24726479415423355,0.9094068394759569,25.925729252317307,-12.2220781326669,7.543779495254585
6380.0,0.08056760974730355,-0.0006699952850647261,-0.9436351001243957,0.35535786620002885,0.33348304438898535,-0.7380373484770574,24.536884646282967,-11.227065540426304,8.26406570900091
6390.0,0.04464484654324387,0.051261989134949906,-0.9290153182617549,0.14459077492007683,0.15733239259893958,0.13313194004147239,24.251846052588004,-14.69364064051345,7.842097798427643
6400.0,0.21799996776015826,-0.015783472357080563,-0.8769952175561108,0.4679737309572641,0.19738070599287597,-0.4469146233099804,25.95369386271624,-11.444153857484867,7.625590464434002
6410.0,0.1040513710015376,0.029337513366836432,-0.8125170871736662,0.10110930628628063,0.09872083569448398,0.96685290500163,24.563014024558328,-12.668914717255293,7.567293986595086
6420.0,0.14604824664328733,0.07473114350087126,-0.8255968532315414,-0.16161531151009012,0.3989243653105563,-0.7869672865192526,24.19476431878362,-12.696572268557794,8.731168387454922
6430.0,0.11165440174636232,0.03510465535287902,-0.8682803730268326,0.20249192970171226,0.3437686716714284,0.21027063310281385,25.148520961389643,-11.55627254642619,7.806443337859108
6440.0,0.18741872833058135,-0.017446867652121622,-0.8624888056286671,0.2586873576136162,0.3661757857391929,0.10279959003621933,25.779469150742386,-9.402567828337686,6.820376816932953
6450.0,0.19006590928441247,-0.028212387069373686,-0.8394509248862805,0.12373582329787805,0.48380996014007094,1.5042133421198447,24.54987237801259,-10.971088893391894,9.734260195469876
6460.0,0.22794594857219674,0.005290099914928905,-0.8041175941004266,0.07813343567008549,0.4072663402840818,-0.09424233292997583,24.615881959279747,-12.524582059148345,7.61490945756388
6470.0,0.1196273676049757,-0.010715959715217131,-0.8386374601125569,0.27693560359879077,0.39551743733241423,-0.3635301058129662,25.260833709728857,-11.697624733306649,7.768428890153352
6480.0,0.16231798529159794,-0.01777834678368314,-0.8806870670003443,0.08576050951573141,0.1991467786519357,0.623520932963096,26.350292159624356,-11.638121437439299,7.187176841500529
6490.0,0.3004618940768786,0.019841613692535273,-0.8728116012467558,0.06580431514953952,0.18972008357032347,0.3738493057522315,25.248239175021315,-11.266689129890711,8.133232014691629
