timestamp,accelX,accelY,accelZ,gyroX,gyroY,gyroZ,magX,magY,magZ
679547.0,0.281738,-0.945557,-0.231567,-5.249023,2.13623,-4.455566,-5.0,-1.0,-41.0
679579.0,0.290161,-0.946411,-0.2229,-5.981445,2.990722,-3.723144,-5.0,-1.0,-41.0
679613.0,0.294189,-0.942993,-0.224487,-6.16455,1.708984,-4.333496,-5.0,-1.0,-43.0
679645.0,0.300659,-0.938599,-0.228638,-6.16455,1.525879,-5.615234,-5.0,-1.0,-43.0
679679.0,0.289917,-0.942505,-0.224731,-7.202148,1.647949,-7.080078,-5.0,-1.0,-43.0
679714.0,0.272217,-0.951782,-0.213501,-7.751464,4.455566,-8.361816,-5.0,0.0,-45.0
679748.0,0.265747,-0.956787,-0.214722,-8.483887,5.676269,-8.361816,-5.0,0.0,-45.0
679782.0,0.253662,-0.968506,-0.200684,-9.887695,7.568359,-9.643555,-5.0,0.0,-45.0
679822.0,0.26123,-0.960937,-0.202759,-12.878417,11.047362,-12.634276,-4.0,2.0,-41.0
679856.0,0.256592,-0.969116,-0.191162,-14.770507,11.779784,-16.418457,-4.0,2.0,-41.0
679890.0,0.255981,-0.972778,-0.186768,-15.502929,11.596679,-20.935057,-4.0,2.0,-41.0
679929.0,0.251343,-0.957153,-0.191528,-15.441894,11.291503,-26.245115,-5.0,0.0,-39.0
679967.0,0.181519,-1.004395,-0.168091,-15.624999,18.127441,-28.747557,-5.0,0.0,-39.0
680000.0,0.177734,-1.001709,-0.176636,-16.357422,22.033689,-29.418943,-5.0,0.0,-39.0
680036.0,0.206055,-1.020142,-0.179443,-14.648437,31.372068,-31.494139,-8.0,5.0,-37.0
680069.0,0.183472,-0.99292,-0.168335,-14.343261,25.817869,-32.714844,-8.0,5.0,-37.0
680105.0,0.166992,-1.010376,-0.153442,-12.512206,22.644041,-32.592773,-8.0,7.0,-40.0
680137.0,0.117065,-0.943604,-0.175415,-6.713867,20.080564,-25.878904,-8.0,7.0,-40.0
680171.0,0.083862,-0.983765,-0.120605,-8.544922,20.874022,-21.911619,-8.0,7.0,-40.0
680207.0,0.039551,-0.957153,-0.117065,-2.563476,0.915527,-18.859863,-5.0,6.0,-40.0
680244.0,-0.016602,-0.996338,-0.09375,-3.234863,-6.774902,-11.108397,-5.0,6.0,-40.0
680278.0,0.072388,-0.951538,-0.114136,-4.455566,-13.000487,-8.239746,-5.0,6.0,-40.0
680313.0,0.013306,-0.966431,-0.13916,-0.732422,-20.1416,-4.394531,-5.0,5.0,-37.0
680350.0,0.028564,-0.993408,-0.164795,-1.708984,-13.85498,0.427246,-5.0,5.0,-37.0
680385.0,0.065308,-0.958984,-0.166016,-1.159668,-4.150391,5.187988,-5.0,5.0,-37.0
680419.0,0.052856,-1.022583,-0.140625,-0.244141,0.061035,4.333496,-7.0,6.0,-38.0
680455.0,0.083496,-1.040161,-0.109375,-1.159668,1.525879,0.671387,-7.0,6.0,-38.0
680490.0,0.087036,-1.07019,-0.116821,-1.953125,1.281738,-5.859375,-7.0,6.0,-38.0
680526.0,0.099243,-0.99353,-0.134644,-3.356933,-2.502441,-12.451171,-7.0,6.0,-37.0
680559.0,0.0271,-1.02124,-0.132446,-2.380371,0.671387,-11.596679,-7.0,6.0,-37.0
680594.0,0.036499,-1.01001,-0.125488,-3.356933,3.784179,-10.559081,-9.0,10.0,-41.0
680630.0,0.036377,-1.068237,-0.132812,-5.065917,6.774902,-12.634276,-9.0,10.0,-41.0
680668.0,0.207886,-1.111084,-0.207886,-10.925292,13.427733,-21.606443,-9.0,10.0,-41.0
680701.0,0.038818,-1.082764,-0.112061,-10.31494,3.356933,-39.978027,-8.0,10.0,-40.0
680737.0,0.223389,-0.984497,-0.161865,-6.04248,32.470703,-32.226562,-8.0,10.0,-40.0
680772.0,0.376465,-0.844971,-0.151611,5.126953,18.432617,-11.291503,-8.0,10.0,-40.0
680808.0,0.571167,-0.780884,0.015259,-0.610352,42.907711,34.484863,-6.0,9.0,-36.0
680845.0,0.582275,-0.758179,-0.003418,7.141113,8.178711,70.861816,-6.0,9.0,-36.0
680879.0,0.524902,-0.871826,-0.071899,12.573241,-5.737304,102.844231,-6.0,9.0,-36.0
680913.0,0.446045,-0.988403,-0.103882,20.1416,-21.728514,124.572746,-8.0,4.0,-37.0
680947.0,0.31189,-1.080444,-0.146973,26.000975,-30.944822,131.530762,-8.0,4.0,-37.0
680980.0,0.250244,-1.186035,-0.175415,27.526854,-34.301758,137.023926,-8.0,4.0,-37.0
681014.0,0.16626,-1.208862,-0.177368,17.456055,-37.963867,123.90136,-7.0,-4.0,-41.0
681050.0,0.100098,-1.153076,-0.230469,18.554687,-41.381832,107.971184,-7.0,-4.0,-41.0
681085.0,-0.005371,-1.062134,-0.224731,17.822266,-39.0625,71.350098,-1.0,-10.0,-39.0
681118.0,0.052856,-0.993896,-0.171509,17.028809,-22.338865,47.302242,-1.0,-10.0,-39.0
681153.0,0.02478,-0.959839,-0.193359,4.699707,-8.544922,11.230468,-1.0,-10.0,-39.0
681190.0,0.060059,-0.966553,-0.157349,-1.708984,19.897461,-8.056641,0.0,-10.0,-41.0
681223.0,0.064697,-0.968384,-0.157715,-9.033203,29.479979,-43.762203,0.0,-10.0,-41.0
681259.0,0.729248,-0.885376,-0.359741,-6.713867,22.15576,-63.96484,0.0,-10.0,-41.0
681295.0,1.417725,-0.882202,-0.000488,6.469726,88.439934,-5.249023,0.0,-5.0,-41.0
681328.0,-0.081787,-1.089966,-0.397217,35.15625,-62.683102,-78.979492,0.0,-5.0,-41.0
681363.0,0.422485,-0.960449,-0.122925,17.39502,-2.319336,-72.814941,0.0,-5.0,-41.0
681397.0,0.14917,-0.928345,-0.246948,45.593258,-28.19824,-47.241207,0.0,-10.0,-40.0
681429.0,0.188477,-1.062256,-0.256348,25.451658,17.51709,-34.912109,0.0,-10.0,-40.0
681465.0,0.326172,-0.929443,-0.262817,25.146482,14.282226,-30.822752,0.0,-10.0,-40.0
681502.0,0.24646,-0.997803,-0.269775,17.822266,6.591796,-32.653809,4.0,-8.0,-44.0
681536.0,0.287354,-0.923218,-0.319946,11.413573,9.521484,-28.747557,4.0,-8.0,-44.0
681570.0,0.172363,-0.953735,-0.318848,-1.525879,26.672361,-21.423338,4.0,-8.0,-44.0
681602.0,0.235352,-0.915649,-0.296143,-6.591796,33.38623,-11.596679,2.0,-6.0,-41.0
681633.0,0.318115,-0.935669,-0.263916,-0.549316,12.878417,-6.408691,2.0,-6.0,-41.0
681664.0,0.204956,-0.937622,-0.287354,5.187988,8.911133,-11.352538,2.0,-6.0,-41.0
681696.0,0.210693,-0.950317,-0.292236,6.530761,6.530761,-2.807617,2.0,-6.0,-42.0
681727.0,0.17981,-0.94873,-0.29834,5.798339,8.972168,-1.525879,2.0,-6.0,-42.0
681758.0,0.233032,-0.950806,-0.296875,6.103515,13.549804,10.498046,2.0,-6.0,-42.0
681790.0,0.213135,-0.937134,-0.305908,6.591796,10.742187,5.615234,4.0,-1.0,-42.0
681821.0,0.231812,-0.921509,-0.326172,1.953125,14.343261,-2.807617,4.0,-1.0,-42.0
681855.0,0.248535,-0.921509,-0.335327,-3.051758,16.662598,-21.789549,4.0,-1.0,-42.0
681887.0,0.21228,-0.928223,-0.335449,-1.831055,19.65332,-19.287109,3.0,0.0,-46.0
681918.0,0.207642,-0.942383,-0.317871,-4.577637,26.489256,-28.137205,3.0,0.0,-46.0
681950.0,0.159546,-0.97583,-0.309937,-5.737304,22.583006,-30.822752,3.0,0.0,-46.0
681983.0,0.220581,-0.956787,-0.340942,-8.117676,24.230955,-24.475096,4.0,1.0,-43.0
682015.0,0.098999,-0.986694,-0.32312,-9.765625,17.883301,-28.19824,4.0,1.0,-43.0
682046.0,0.145142,-0.999878,-0.338013,-8.666992,20.080564,-19.836426,4.0,1.0,-43.0
682078.0,0.144165,-1.108643,-0.334717,-10.375976,22.949217,-17.211914,5.0,2.0,-43.0
682110.0,0.222412,-1.107422,-0.362061,-22.460936,40.039062,-44.799801,5.0,2.0,-43.0
682142.0,0.175537,-1.290894,-0.27356,-20.996092,50.720211,-61.767574,5.0,2.0,-43.0
682175.0,0.263916,-1.380615,-0.302856,-33.38623,58.532711,-104.675285,2.0,6.0,-41.0
682207.0,0.29541,-1.406616,-0.236328,-44.921871,94.055168,-158.203125,2.0,6.0,-41.0
682239.0,0.45813,-1.338989,-0.110229,-60.668941,134.887695,-206.237778,2.0,6.0,-41.0
682272.0,0.594238,-0.849243,-0.31311,-41.564938,71.777344,-174.926743,4.0,16.0,-38.0
682303.0,0.256836,-0.495728,-0.348389,7.019042,-14.404296,-125.976555,4.0,16.0,-38.0
682334.0,-0.612305,-0.888794,-0.368896,13.549804,-35.705566,-82.580559,4.0,16.0,-38.0
682366.0,0.571899,-0.246704,-0.091553,-31.799314,58.532711,50.659176,8.0,14.0,-35.0
682397.0,0.132935,-0.614624,0.150635,-24.108885,86.425774,114.135735,8.0,14.0,-35.0
682429.0,0.052734,-0.617432,-0.098389,-7.995605,31.98242,137.512207,8.0,14.0,-35.0
682461.0,0.176636,-0.751343,-0.101074,10.620116,46.691891,185.302719,3.0,17.0,-39.0
682492.0,0.236328,-0.887085,-0.106567,44.494625,-15.686034,192.443832,3.0,17.0,-39.0
682523.0,0.075928,-1.248535,-0.05835,57.861324,-46.874996,200.805649,3.0,17.0,-39.0
682555.0,0.148437,-1.361328,-0.058838,61.462399,-85.876457,183.227524,3.0,17.0,-39.0
682588.0,-0.00415,-1.302002,-0.155273,40.40527,-157.043457,171.752914,1.0,7.0,-39.0
682620.0,-0.040894,-1.38623,-0.307739,7.568359,-103.942863,166.748032,1.0,7.0,-39.0
682651.0,0.047241,-1.166748,-0.412354,0.366211,-70.556641,166.13768,1.0,7.0,-39.0
682683.0,-0.043335,-1.272583,-0.494019,11.657714,-55.236813,143.920898,0.0,1.0,-39.0
682714.0,-0.195923,-1.153442,-0.349976,15.502929,-23.437498,122.375481,0.0,1.0,-39.0
682745.0,-0.13147,-1.105469,-0.269775,19.958496,-11.718749,79.162598,0.0,1.0,-39.0
682777.0,-0.14209,-1.042847,-0.247192,21.240232,-35.400391,17.700195,1.0,-5.0,-35.0
682808.0,-0.18335,-1.057129,-0.234863,24.780272,-52.307125,-54.443356,1.0,-5.0,-35.0
682839.0,0.098999,-1.069702,-0.133423,24.963377,-57.739254,-89.11132,1.0,-5.0,-35.0
682873.0,1.303223,-0.966431,0.06665,23.132322,15.136718,-15.624999,1.0,-7.0,-40.0
682904.0,-0.681763,-1.105835,-0.25708,18.371582,-48.400875,-99.792473,1.0,-7.0,-40.0
682935.0,0.870117,-0.918213,-0.317017,37.475586,-4.638672,-68.481445,1.0,-7.0,-40.0
682969.0,0.264526,-0.805298,-0.303467,46.020504,-64.758301,-66.833496,3.0,-8.0,-35.0
683001.0,0.212646,-0.943359,-0.291138,32.531738,-20.751951,-33.02002,3.0,-8.0,-35.0
683033.0,0.393555,-0.933594,-0.182861,23.559568,17.63916,-45.776363,3.0,-8.0,-35.0
683065.0,0.370239,-0.935181,-0.22522,30.09033,5.493164,-37.475586,3.0,-7.0,-41.0
683096.0,0.266235,-0.998291,-0.268311,29.96826,-19.592285,-43.334957,3.0,-7.0,-41.0
683127.0,0.277222,-0.943359,-0.285034,21.728514,-10.803222,-39.306641,3.0,-7.0,-41.0
683159.0,0.162476,-0.950439,-0.28772,8.361816,9.155273,-37.231445,7.0,-5.0,-38.0
683192.0,0.3396,-0.928101,-0.294556,0.183105,23.071287,-34.423828,7.0,-5.0,-38.0
683223.0,0.24646,-0.936157,-0.265747,3.723144,2.197266,-31.555174,7.0,-5.0,-38.0
683256.0,0.216187,-0.936646,-0.26416,5.676269,1.647949,-29.479979,8.0,-7.0,-41.0
683288.0,0.176147,-0.954346,-0.285889,5.432128,14.587401,-27.587889,8.0,-7.0,-41.0
683320.0,0.202026,-0.954102,-0.296631,0.732422,24.597166,-26.611326,8.0,-7.0,-41.0
683354.0,0.208008,-0.95459,-0.278809,0.671387,20.324705,-25.512693,6.0,-4.0,-38.0
683387.0,0.171631,-0.956665,-0.286133,4.516602,13.305663,-19.65332,6.0,-4.0,-38.0
683419.0,0.131714,-0.957886,-0.282959,3.173828,13.916015,-24.230955,6.0,-4.0,-38.0
683451.0,0.121582,-0.98291,-0.282227,3.662109,22.27783,-24.658201,8.0,-3.0,-39.0
683482.0,0.131714,-0.945435,-0.312744,2.868652,25.512693,-26.30615,8.0,-3.0,-39.0
683513.0,0.071533,-0.98877,-0.285767,5.187988,22.27783,-23.254393,8.0,-3.0,-39.0
683546.0,0.147095,-0.986572,-0.355591,-0.610352,20.446775,-27.099607,8.0,-1.0,-39.0
683579.0,0.092529,-0.99707,-0.358276,-4.760742,21.545408,-20.019531,8.0,-1.0,-39.0
683610.0,0.10437,-1.042236,-0.339111,-10.742187,22.888182,-23.376463,8.0,-1.0,-39.0
683643.0,0.12439,-1.18811,-0.351929,-15.624999,27.160643,-27.160643,7.0,1.0,-46.0
683674.0,0.217285,-1.169678,-0.384399,-21.728514,32.348633,-58.105465,7.0,1.0,-46.0
683705.0,0.060425,-1.171997,-0.25061,-19.348145,47.424313,-73.669434,7.0,1.0,-46.0
683737.0,0.101318,-1.322144,-0.212891,-21.606443,61.767574,-101.806633,4.0,1.0,-37.0
683769.0,0.177368,-1.340332,-0.358643,-29.541014,104.309074,-144.836426,4.0,1.0,-37.0
683800.0,0.322754,-1.183105,-0.482544,-27.709959,185.180649,-151.489258,4.0,1.0,-37.0
683831.0,0.522583,-0.739624,-0.354492,-15.075683,214.7827,-117.858879,4.0,1.0,-37.0
683864.0,-0.155151,-0.461792,-0.266602,22.3999,139.648437,-61.645504,7.0,14.0,-28.0
683895.0,-0.571899,-0.682739,-0.365356,26.794432,152.038574,-16.296387,7.0,14.0,-28.0
683926.0,0.892212,-0.24939,0.009399,39.428711,232.055649,160.03418,7.0,14.0,-28.0
683959.0,0.192749,-0.766235,0.271362,55.480953,78.369141,113.159172,8.0,23.0,-30.0
683990.0,-0.00061,-0.808228,0.225586,75.866699,99.487297,156.25,8.0,23.0,-30.0
684021.0,0.299683,-1.099121,0.226807,74.645996,115.539543,191.46727,8.0,23.0,-30.0
684053.0,0.057495,-1.13269,0.222656,61.889645,87.280266,194.396957,2.0,24.0,-25.0
684084.0,0.126221,-1.218872,0.154297,70.495605,89.233391,196.166977,2.0,24.0,-25.0
684115.0,0.174561,-1.173584,0.058472,68.603516,43.945309,189.819321,2.0,24.0,-25.0
684147.0,0.148682,-1.279175,0.004028,67.382812,37.780762,202.575668,-8.0,22.0,-22.0
684178.0,0.055054,-1.380615,0.026001,42.053219,57.373043,193.847641,-8.0,22.0,-22.0
684209.0,0.019897,-1.350708,-0.020386,10.925292,82.153313,182.067856,-8.0,22.0,-22.0
684242.0,-0.160156,-1.342896,-0.088257,-12.939452,116.271965,158.38623,-9.0,22.0,-19.0
684275.0,-0.208374,-1.183838,-0.084595,-41.625973,161.376938,110.107414,-9.0,22.0,-19.0
684306.0,-0.118042,-1.123169,-0.12207,-46.142574,124.389641,41.076656,-9.0,22.0,-19.0
684338.0,-0.088745,-1.096924,-0.209839,-45.166012,58.654781,-31.799314,-14.0,25.0,-11.0
684370.0,1.156128,-0.920288,-0.625854,-10.864257,54.504391,-45.227047,-14.0,25.0,-11.0
684401.0,0.667114,-0.870117,-0.187256,-28.869627,42.724606,-35.15625,-14.0,25.0,-11.0
684434.0,-0.175781,-1.026245,-0.288696,-0.671387,-66.345215,-64.147949,-11.0,25.0,-17.0
684466.0,0.149658,-0.885498,-0.434448,-8.422852,43.945309,-36.682129,-11.0,25.0,-17.0
684498.0,0.357666,-0.846924,-0.39856,-7.995605,11.96289,-41.870113,-11.0,25.0,-17.0
684531.0,0.232544,-0.908936,-0.335571,-2.807617,19.775391,-21.972654,-10.0,26.0,-13.0
684562.0,0.270996,-0.899048,-0.361938,-3.662109,17.028809,-20.446775,-10.0,26.0,-13.0
684594.0,0.275757,-0.947876,-0.340698,-4.089355,21.850584,-19.226074,-10.0,26.0,-13.0
684627.0,0.306641,-0.884155,-0.390869,-5.371093,15.014647,-17.39502,-9.0,26.0,-13.0
684659.0,0.192627,-0.94519,-0.362549,-8.850098,17.456055,-14.282226,-9.0,26.0,-13.0
684690.0,0.280396,-0.899902,-0.377441,-13.85498,28.07617,-11.901855,-9.0,26.0,-13.0
684722.0,0.227661,-0.921021,-0.357178,-13.244628,19.958496,-11.96289,-7.0,26.0,-13.0
684754.0,0.23584,-0.903809,-0.365723,-14.09912,20.446775,-9.765625,-7.0,26.0,-13.0
684786.0,0.252075,-0.906982,-0.353882,-13.793944,19.592285,-11.779784,-7.0,26.0,-13.0
684819.0,0.184204,-0.929077,-0.323364,-10.620116,12.390136,-13.488769,-11.0,27.0,-6.0
684850.0,0.21106,-0.935547,-0.336792,-10.0708,8.300781,-13.122558,-11.0,27.0,-6.0
684881.0,0.179565,-0.944702,-0.327637,-9.82666,9.58252,-8.544922,-11.0,27.0,-6.0
684912.0,0.177002,-0.944702,-0.335327,-12.817382,15.441894,-13.916015,-11.0,27.0,-6.0
684944.0,0.178711,-0.941284,-0.338867,-16.723633,18.920898,-15.930175,-8.0,29.0,-4.0
684975.0,0.15686,-0.935059,-0.333984,-18.493652,14.892577,-17.333984,-8.0,29.0,-4.0
685006.0,0.10144,-0.957275,-0.285889,-19.287109,23.376463,-13.97705,-8.0,29.0,-4.0
685038.0,0.124756,-0.968628,-0.30835,-19.592285,24.04785,-10.803222,-8.0,31.0,-10.0
685069.0,0.141602,-0.956299,-0.298218,-21.911619,22.521971,-8.850098,-8.0,31.0,-10.0
685101.0,0.061279,-0.968872,-0.258545,-22.644041,21.057127,-9.460449,-8.0,31.0,-10.0
685134.0,0.04895,-1.014526,-0.246338,-19.592285,25.268553,-7.019042,-7.0,30.0,-2.0
685166.0,-0.007935,-1.043701,-0.234863,-22.27783,53.283688,-11.535644,-7.0,30.0,-2.0
685197.0,-0.042725,-1.091553,-0.266602,-25.756834,87.707512,-15.624999,-7.0,30.0,-2.0
685229.0,0.007935,-1.030273,-0.329102,-36.315918,123.168938,-16.906738,-6.0,29.0,4.0
685260.0,0.282471,-0.96228,-0.555298,-32.531738,170.837387,-16.113281,-6.0,29.0,4.0
685291.0,0.387695,-1.028442,-0.707764,12.817382,210.021957,0.732422,-6.0,29.0,4.0
685323.0,0.193237,-1.119629,-0.655151,12.329101,253.601059,5.371093,-6.0,30.0,15.0
685354.0,0.148682,-0.869019,-0.667847,12.756347,370.117157,44.189449,-6.0,30.0,15.0
685385.0,0.240601,-0.965088,-0.383301,12.451171,408.691376,58.410641,-6.0,30.0,15.0
685417.0,0.691406,-1.000244,0.401611,-8.972168,419.372528,82.458488,-9.0,13.0,25.0
685448.0,0.839233,-0.831299,0.526978,-5.554199,315.063477,64.025879,-9.0,13.0,25.0
685479.0,0.70874,-0.764771,0.422729,14.526366,187.744125,75.378418,-9.0,13.0,25.0
685511.0,0.640625,-0.884644,0.403442,19.775391,110.839836,105.346672,-11.0,0.0,34.0
685542.0,0.517578,-0.984497,0.35791,13.000487,39.0625,130.065918,-11.0,0.0,34.0
685573.0,0.425537,-1.031616,0.276611,3.723144,3.845215,148.132324,-11.0,0.0,34.0
685606.0,0.338623,-1.117065,0.09436,-4.577637,-9.521484,161.621078,-9.0,-5.0,31.0
685638.0,0.107666,-1.264893,-0.045898,-16.479492,-4.760742,168.579086,-9.0,-5.0,31.0
685670.0,0.233032,-1.25293,-0.166992,-24.230955,2.685547,159.362793,-9.0,-5.0,31.0
685703.0,0.179199,-1.196411,-0.235107,-20.202635,-33.325195,129.455566,-8.0,-12.0,33.0
685735.0,-0.110596,-1.048096,-0.236328,-20.935057,-19.470215,97.656242,-8.0,-12.0,33.0
685766.0,-0.093628,-0.992676,-0.226196,-23.498533,7.995605,59.143063,-8.0,-12.0,33.0
685797.0,-0.007202,-0.963257,-0.301025,-23.071287,7.202148,14.404296,-8.0,-12.0,33.0
685829.0,-0.051636,-0.911499,-0.341797,-18.432617,11.779784,-29.785154,-5.0,-15.0,31.0
685860.0,-0.03186,-0.94165,-0.353638,-13.85498,30.456541,-66.833496,-5.0,-15.0,31.0
685891.0,1.104858,-0.809204,-0.541382,-7.080078,86.669914,-40.893551,-5.0,-15.0,31.0
685923.0,1.063232,-0.936401,0.264771,-2.258301,169.799789,7.690429,-10.0,-18.0,27.0
685954.0,-0.165405,-1.12207,-0.28418,22.216795,-31.738279,-100.036613,-10.0,-18.0,27.0
685985.0,0.019165,-0.952148,-0.071167,25.390623,-9.155273,-56.945797,-10.0,-18.0,27.0
686018.0,0.524292,-0.919189,-0.314697,45.227047,-25.878904,-59.082027,-11.0,-15.0,27.0
686050.0,0.108398,-0.96106,-0.263062,40.832516,-21.667479,-32.409668,-11.0,-15.0,27.0
686081.0,0.291504,-0.894043,-0.278198,28.930662,20.080564,-26.489256,-11.0,-15.0,27.0
686114.0,0.275879,-0.994507,-0.26355,24.780272,33.691406,-20.26367,-13.0,-16.0,25.0
686147.0,0.341309,-0.94873,-0.278076,24.108885,21.545408,-17.211914,-13.0,-16.0,25.0
686179.0,0.436279,-0.883789,-0.31189,21.911619,-9.277344,-21.362303,-13.0,-16.0,25.0
686212.0,0.206177,-0.935791,-0.348389,12.20703,-3.967285,-18.554687,-13.0,-13.0,28.0
686244.0,0.303589,-0.9375,-0.307983,-1.831055,22.644041,-17.944336,-13.0,-13.0,28.0
686275.0,0.323853,-0.904053,-0.27478,-0.427246,11.291503,-9.643555,-13.0,-13.0,28.0
686308.0,0.282593,-0.921753,-0.264771,4.577637,5.554199,-15.86914,-14.0,-14.0,28.0
686339.0,0.312866,-0.907959,-0.294312,8.422852,0.671387,-18.310547,-14.0,-14.0,28.0
686370.0,0.231323,-0.907227,-0.309814,5.004883,9.643555,-26.18408,-14.0,-14.0,28.0
686402.0,0.225464,-0.942261,-0.297852,4.638672,18.920898,-34.362793,-14.0,-14.0,31.0
686433.0,0.260498,-0.943848,-0.288696,5.92041,20.996092,-26.977537,-14.0,-14.0,31.0
686464.0,0.154541,-0.957275,-0.308594,5.554199,20.080564,-17.211914,-14.0,-14.0,31.0
686496.0,0.208252,-0.947266,-0.342651,2.258301,33.691406,-24.536131,-16.0,-15.0,27.0
686528.0,0.108521,-0.978638,-0.322632,-2.258301,37.29248,-36.315918,-16.0,-15.0,27.0
686559.0,0.234985,-0.96936,-0.374756,-6.286621,38.574219,-38.635254,-16.0,-15.0,27.0
686591.0,0.128174,-0.988037,-0.362305,-7.019042,29.785154,-36.376953,-13.0,-15.0,27.0
686623.0,0.164062,-1.065796,-0.32959,-4.821777,33.569336,-20.874022,-13.0,-15.0,27.0
686654.0,0.179321,-1.068726,-0.345215,-8.544922,30.517576,-35.461426,-13.0,-15.0,27.0
686686.0,0.13855,-1.174316,-0.286743,-7.446289,29.541014,-43.945309,-16.0,-14.0,23.0
686718.0,0.229736,-1.325684,-0.389648,-30.517576,41.259762,-105.102531,-16.0,-14.0,23.0
686749.0,0.209961,-1.310791,-0.351074,-28.442381,50.537106,-138.427734,-16.0,-14.0,23.0
686783.0,0.289429,-1.390015,-0.279297,-27.709959,91.369621,-147.338867,-16.0,-13.0,26.0
686814.0,0.369995,-1.338257,-0.214844,-38.94043,142.333984,-157.531738,-16.0,-13.0,26.0
686845.0,0.787842,-0.878784,-0.422607,-50.048824,161.254868,-167.480453,-16.0,-13.0,26.0
686876.0,-0.200439,-0.74231,-0.316772,-12.20703,63.476559,-128.967285,-16.0,-13.0,26.0
686908.0,-0.69165,-1.012695,-0.40564,7.263183,23.742674,-130.065918,-17.0,-11.0,24.0
686940.0,-0.223877,-0.818481,-0.400513,0.671387,37.963867,-87.463371,-17.0,-11.0,24.0
686971.0,0.428223,-0.344116,-0.009155,-27.587889,21.240232,40.222164,-17.0,-11.0,24.0
687003.0,0.25769,-0.687988,0.122192,11.840819,-20.935057,124.26757,-17.0,-12.0,27.0
687034.0,-0.05188,-0.657471,-0.134399,-17.211914,-83.984367,94.238274,-17.0,-12.0,27.0
687065.0,0.292603,-0.536133,-0.077515,-13.671874,2.380371,167.846664,-17.0,-12.0,27.0
687097.0,0.310791,-0.824951,-0.120972,20.629881,-44.31152,209.716782,-13.0,-14.0,29.0
687131.0,0.02124,-1.092407,-0.228027,23.864744,-59.020992,249.572739,-13.0,-14.0,29.0
687163.0,0.139038,-1.408447,-0.216675,42.602535,-54.992672,249.023422,-13.0,-14.0,29.0
687195.0,0.002319,-1.401123,-0.235229,42.846676,-116.149895,229.614243,-11.0,-20.0,28.0
687227.0,-0.206787,-1.5625,-0.279541,24.04785,-121.643059,219.543442,-11.0,-20.0,28.0
687258.0,-0.245728,-1.469849,-0.377686,-4.882812,-97.778313,199.096664,-11.0,-20.0,28.0
687290.0,-0.390381,-1.410645,-0.578979,3.90625,-69.396973,165.222153,-7.0,-23.0,37.0
687322.0,-0.921143,-1.355347,-0.483887,10.437011,3.967285,109.130852,-7.0,-23.0,37.0
687353.0,-0.58606,-1.182617,-0.19165,6.835937,54.931637,30.151365,-7.0,-23.0,37.0
687387.0,-0.455078,-1.156372,-0.339478,0.915527,-31.188963,-105.529778,-5.0,-19.0,35.0
687418.0,2.607422,-1.001343,-0.242432,8.178711,89.355461,-20.629881,-5.0,-19.0,35.0
687450.0,-0.413574,-1.115845,0.188843,-0.549316,53.161617,-87.463371,-5.0,-19.0,35.0
687482.0,1.088135,-1.163452,-0.478638,80.871574,-103.210442,-113.342278,-9.0,-22.0,32.0
687513.0,0.010498,-0.682739,-0.303589,21.972654,-42.358395,-73.120117,-9.0,-22.0,32.0
687544.0,0.052368,-1.027344,-0.337402,46.691891,-51.086422,-56.884762,-9.0,-22.0,32.0
687576.0,0.041382,-1.202271,-0.265747,0.793457,65.856934,-63.598629,-12.0,-15.0,31.0
687607.0,0.526245,-0.807861,-0.232666,10.375976,39.916992,-44.921871,-12.0,-15.0,31.0
687639.0,0.246094,-0.9375,-0.333618,13.122558,11.474608,-39.245605,-12.0,-15.0,31.0
687671.0,0.267944,-0.930176,-0.297241,8.239746,11.169433,-28.747557,-15.0,-17.0,29.0
687702.0,0.119263,-0.950562,-0.318115,10.559081,3.112793,-28.564451,-15.0,-17.0,29.0
687733.0,0.239502,-0.896362,-0.320679,-1.831055,37.597656,-17.089844,-15.0,-17.0,29.0
687764.0,0.240479,-0.980225,-0.287354,5.676269,23.986814,-11.596679,-15.0,-17.0,29.0
687799.0,0.1875,-0.914795,-0.313477,7.141113,21.545408,-11.474608,-16.0,-21.0,27.0
687831.0,0.231689,-0.948975,-0.348999,8.483887,16.845703,-12.573241,-16.0,-21.0,27.0
687864.0,0.173706,-0.927612,-0.356567,7.507324,21.728514,-8.361816,-16.0,-19.0,27.0
687895.0,0.163452,-0.932617,-0.334839,5.92041,27.526854,-10.986327,-16.0,-19.0,27.0
687926.0,0.185547,-0.936768,-0.336792,5.615234,26.733397,-20.507811,-16.0,-19.0,27.0
687957.0,0.192871,-0.937378,-0.35791,7.629394,22.3999,-15.441894,-16.0,-19.0,27.0
687990.0,0.145874,-0.957642,-0.361572,6.225585,23.559568,-11.108397,-17.0,-21.0,26.0
688024.0,0.159668,-0.936523,-0.362427,2.13623,20.202635,-20.812986,-17.0,-21.0,26.0
688055.0,0.176147,-0.960815,-0.390137,1.525879,12.939452,-27.404783,-17.0,-21.0,26.0
688088.0,0.109375,-0.987183,-0.401611,1.708984,14.709472,-18.798828,-16.0,-20.0,23.0
688122.0,0.086426,-1.009888,-0.407593,-3.051758,28.19824,-15.075683,-16.0,-20.0,23.0
688153.0,0.096558,-0.998535,-0.410889,-13.061522,44.372555,-7.507324,-16.0,-20.0,23.0
688185.0,0.195923,-1.056152,-0.445801,-18.005371,51.269527,-24.536131,-18.0,-21.0,26.0
688217.0,0.11731,-1.132446,-0.425415,-18.127441,65.307617,-39.428711,-18.0,-21.0,26.0
688248.0,0.095581,-1.225464,-0.38269,-33.081055,109.802238,-63.598629,-18.0,-21.0,26.0
688280.0,0.109131,-1.256226,-0.24292,-38.574219,138.977051,-108.27636,-16.0,-22.0,25.0
688311.0,0.182129,-1.338013,-0.332886,-30.456541,180.541977,-141.601562,-16.0,-22.0,25.0
688342.0,0.456177,-1.138428,-0.494995,-28.015135,234.497055,-124.572746,-16.0,-22.0,25.0
688374.0,-0.148437,-0.707031,-0.447754,0.671387,222.351059,-115.661613,-20.0,-24.0,12.0
688405.0,-0.770508,-0.797852,-0.686523,55.358883,178.161606,-118.652336,-20.0,-24.0,12.0
688436.0,-0.361816,-0.804687,-0.550049,81.848137,199.707016,-22.15576,-20.0,-24.0,12.0
688469.0,-0.201416,-0.292725,-0.113647,79.467773,207.702621,2.319336,-25.0,-23.0,8.0
688500.0,0.514648,-0.239502,0.225952,94.970695,265.869141,134.765625,-25.0,-23.0,8.0
688531.0,0.264893,-0.86792,0.631958,78.796387,269.775391,151.306152,-25.0,-23.0,8.0
688564.0,0.389648,-0.589355,0.329346,101.501457,191.223129,157.165527,-17.0,-30.0,-8.0
688595.0,0.329712,-0.810791,0.361328,102.661125,199.645981,205.505356,-17.0,-30.0,-8.0
688626.0,0.25415,-1.121704,0.325684,102.111809,205.993637,228.027328,-17.0,-30.0,-8.0
688659.0,0.301147,-1.369141,0.349121,100.036613,219.299301,230.712875,-3.0,-32.0,-25.0
688693.0,0.264404,-1.363403,0.306152,93.872063,137.756348,216.186508,-3.0,-32.0,-25.0
688724.0,0.275757,-1.467285,0.22876,77.697754,130.371094,218.68895,-3.0,-32.0,-25.0
688756.0,0.104248,-1.562622,0.210815,40.710445,135.131836,210.937485,10.0,-28.0,-22.0
688788.0,0.095337,-1.338623,0.111328,-4.821777,137.023926,184.814438,10.0,-28.0,-22.0
688819.0,-0.105957,-1.311279,-0.082764,-13.671874,78.979492,140.258789,10.0,-28.0,-22.0
688851.0,-0.33606,-1.154541,-0.137573,-18.249512,61.584469,83.862297,14.0,-26.0,-32.0
688883.0,-0.148315,-1.038086,-0.169067,-23.498533,3.90625,-8.422852,14.0,-26.0,-32.0
688914.0,-0.030029,-0.887573,-0.708496,-13.793944,-35.888672,-54.321285,14.0,-26.0,-32.0
688946.0,1.251465,-0.718994,-0.597534,12.634276,122.436516,21.606443,12.0,-24.0,-29.0
688977.0,0.604492,-0.809937,-0.248901,-15.930175,17.76123,-18.798828,12.0,-24.0,-29.0
689008.0,-0.010376,-1.196899,-0.271362,10.742187,-61.340328,-55.847164,12.0,-24.0,-29.0
689039.0,0.284668,-0.861206,-0.27002,-8.483887,40.161129,-30.883787,12.0,-24.0,-29.0
689071.0,0.414551,-0.915161,-0.332153,13.366698,1.220703,-35.583496,14.0,-23.0,-25.0
689106.0,0.091064,-0.917114,-0.381226,4.272461,21.240232,-20.080564,14.0,-23.0,-25.0
689136.0,0.240967,-0.94751,-0.351685,-7.446289,53.833004,-12.695312,14.0,-23.0,-25.0
689169.0,0.353271,-0.885132,-0.327637,-1.220703,34.301758,-8.483887,11.0,-21.0,-30.0
689202.0,0.274292,-0.960083,-0.325562,1.89209,10.498046,-9.338379,11.0,-21.0,-30.0
689233.0,0.225586,-0.91626,-0.348511,1.953125,15.075683,-8.178711,11.0,-21.0,-30.0
689265.0,0.244141,-0.916382,-0.364136,-5.798339,30.334471,-2.502441,13.0,-21.0,-30.0
689299.0,0.277344,-0.935547,-0.353394,-8.728027,31.249998,-2.563476,13.0,-21.0,-30.0
689330.0,0.302856,-0.875732,-0.370361,-7.385253,21.362303,-5.615234,13.0,-21.0,-30.0
689362.0,0.248779,-0.899292,-0.383667,-8.972168,15.747069,-7.324218,14.0,-21.0,-28.0
689394.0,0.268433,-0.891968,-0.365845,-10.009766,20.019531,-7.873535,14.0,-21.0,-28.0
689425.0,0.301636,-0.874268,-0.368286,-9.277344,19.65332,-8.422852,14.0,-21.0,-28.0
689457.0,0.247192,-0.885376,-0.363037,-3.051758,8.361816,-8.911133,12.0,-19.0,-33.0
689491.0,0.207153,-0.946045,-0.318237,-9.216309,21.911619,-12.329101,12.0,-19.0,-33.0
689523.0,0.244629,-0.918579,-0.336426,-6.713867,19.40918,-18.005371,12.0,-19.0,-33.0
689556.0,0.237549,-0.911133,-0.370239,-4.455566,15.563964,-21.972654,11.0,-20.0,-34.0
689587.0,0.136597,-0.968384,-0.314209,-4.638672,18.310547,-22.949217,11.0,-20.0,-34.0
689621.0,0.162476,-0.950562,-0.339844,-4.211426,23.437498,-25.085447,11.0,-20.0,-34.0
689654.0,0.201782,-0.962036,-0.363037,-4.150391,28.808592,-22.583006,11.0,-17.0,-37.0
689686.0,0.128662,-0.969482,-0.351318,-4.943848,32.958984,-22.094725,11.0,-17.0,-37.0
689717.0,0.070801,-1.05603,-0.294312,-4.638672,37.17041,-23.559568,11.0,-17.0,-37.0
689749.0,0.159546,-0.993774,-0.332642,-4.02832,38.391113,-12.20703,11.0,-13.0,-37.0
689780.0,0.09729,-0.995728,-0.346436,-4.272461,34.057617,-16.357422,11.0,-13.0,-37.0
689811.0,0.16333,-1.003906,-0.380249,-9.643555,45.532223,-39.489746,11.0,-13.0,-37.0
689843.0,0.089478,-1.101318,-0.366455,-8.911133,44.006344,-60.18066,10.0,-14.0,-31.0
689874.0,0.037109,-1.132202,-0.357422,-12.145995,62.255856,-71.777344,10.0,-14.0,-31.0
689905.0,0.147461,-1.182861,-0.231567,-11.596679,67.443848,-78.308105,10.0,-14.0,-31.0
689939.0,0.110229,-1.296387,-0.183838,-10.0708,71.472168,-103.027336,10.0,-7.0,-34.0
689971.0,0.080078,-1.331543,-0.248169,-32.592773,144.104004,-133.789062,10.0,-7.0,-34.0
690005.0,0.503662,-0.880859,-0.32605,-33.14209,151.672363,-120.483391,10.0,-7.0,-34.0
690038.0,-0.089844,-0.809204,-0.37793,-4.699707,73.120117,-99.487297,9.0,0.0,-37.0
690070.0,-1.160645,-1.024292,-0.699707,18.798828,62.133785,-116.394035,9.0,0.0,-37.0
690102.0,-0.240967,-0.813354,-0.57251,13.122558,96.313469,-91.552727,9.0,0.0,-37.0
690135.0,0.420898,-0.235107,-0.207642,20.446775,77.331543,30.517576,10.0,6.0,-37.0
690166.0,0.247192,-0.678589,0.317627,26.550291,152.770996,155.517578,10.0,6.0,-37.0
690197.0,0.286133,-0.650513,0.3396,-20.751951,75.378418,105.407707,10.0,6.0,-37.0
690229.0,0.309937,-0.648193,0.1521,17.211914,32.226562,151.916504,11.0,10.0,-33.0
690262.0,0.312744,-0.970581,0.066162,37.109375,-24.29199,203.979477,11.0,10.0,-33.0
690293.0,0.118164,-1.120483,-0.003418,39.18457,-29.602049,220.764145,11.0,10.0,-33.0
690325.0,0.128296,-1.340576,-0.047363,40.832516,-36.376953,220.031723,16.0,10.0,-31.0
690357.0,0.149536,-1.362549,-0.127808,43.640133,-89.050285,209.350571,16.0,10.0,-31.0
690388.0,0.017578,-1.540894,-0.312378,38.452148,-108.581535,210.815414,16.0,10.0,-31.0
690421.0,-0.231567,-1.593506,-0.361694,-7.995605,-58.28857,192.382797,7.0,9.0,-36.0
690452.0,-0.199951,-1.222168,-0.363892,-7.995605,-12.023925,162.963852,7.0,9.0,-36.0
690483.0,-0.138916,-1.257813,-0.376465,-4.943848,4.02832,121.948235,7.0,9.0,-36.0
690515.0,-0.308105,-1.070801,-0.286011,0.305176,26.489256,76.599121,7.0,9.0,-36.0
690548.0,-0.059204,-0.995117,-0.306274,0.915527,14.343261,16.601562,1.0,8.0,-38.0
690579.0,-0.06897,-0.955811,-0.337891,16.967773,-34.484863,-58.776852,1.0,8.0,-38.0
690610.0,-0.002319,-0.9823,-0.272461,25.329588,-39.855957,-87.158195,1.0,8.0,-38.0
690643.0,1.655029,-0.942505,0.039185,17.822266,-18.493652,-48.767086,1.0,5.0,-36.0
690675.0,-0.589722,-1.172607,-0.109253,33.874512,0.610352,-25.268553,1.0,5.0,-36.0
690706.0,0.267944,-1.237183,-0.375,49.560543,-88.928215,-118.469231,1.0,5.0,-36.0
690738.0,0.317505,-0.817383,-0.244995,36.132812,0.854492,-59.204098,5.0,4.0,-42.0
690770.0,0.272705,-0.823975,-0.369751,34.790039,-50.781246,-47.058102,5.0,4.0,-42.0
690801.0,0.02063,-1.026367,-0.260986,7.8125,62.011715,-37.902832,5.0,4.0,-42.0
690834.0,0.431885,-0.905151,-0.262207,5.615234,57.922359,-32.714844,9.0,4.0,-38.0
690865.0,0.342651,-0.935425,-0.30188,19.897461,22.338865,-28.686522,9.0,4.0,-38.0
690896.0,0.277588,-0.926147,-0.312256,10.986327,8.300781,-25.512693,9.0,4.0,-38.0
690928.0,0.243286,-0.964478,-0.303833,5.371093,14.09912,-24.16992,8.0,7.0,-41.0
690960.0,0.243042,-0.906494,-0.307495,-5.126953,28.930662,-17.456055,8.0,7.0,-41.0
690992.0,0.281616,-0.951538,-0.286987,-0.244141,14.831542,-13.305663,8.0,7.0,-41.0
691024.0,0.246582,-0.935791,-0.303101,2.441406,15.075683,-16.845703,8.0,9.0,-40.0
691055.0,0.184814,-0.96875,-0.312134,1.647949,19.104004,-5.859375,8.0,9.0,-40.0
691086.0,0.23877,-0.922974,-0.324341,-1.953125,31.677244,-7.141113,8.0,9.0,-40.0
691118.0,0.247925,-0.926758,-0.320801,-1.89209,24.780272,-8.728027,9.0,8.0,-35.0
691150.0,0.17749,-0.943237,-0.307739,-2.441406,23.864744,-17.150879,9.0,8.0,-35.0
691181.0,0.207642,-0.957764,-0.312012,-2.685547,31.799314,-13.366698,9.0,8.0,-35.0
691213.0,0.227173,-0.935913,-0.343384,-1.342773,32.897949,-11.413573,10.0,14.0,-39.0
691244.0,0.203735,-0.942993,-0.32251,-1.647949,37.414551,-6.408691,10.0,14.0,-39.0
691275.0,0.224854,-0.91626,-0.347046,-0.427246,33.569336,-25.024412,10.0,14.0,-39.0
691308.0,0.132324,-0.987427,-0.317749,0.488281,26.123045,-27.160643,10.0,12.0,-31.0
691340.0,0.18457,-0.989746,-0.36084,-0.732422,30.578611,-24.841307,10.0,12.0,-31.0
691371.0,0.10022,-1.002563,-0.320313,-0.488281,31.494139,-8.605957,10.0,12.0,-31.0
691404.0,0.177124,-0.918091,-0.388916,-2.01416,25.024412,-5.798339,9.0,15.0,-34.0
691435.0,0.152832,-1.00708,-0.392334,-4.333496,22.827147,-11.840819,9.0,15.0,-34.0
691467.0,0.220215,-1.107544,-0.435791,-16.113281,31.494139,-16.662598,9.0,15.0,-34.0
691498.0,0.117676,-1.080933,-0.411743,-22.888182,48.706051,-51.025387,9.0,15.0,-34.0
691531.0,0.334961,-1.380249,-0.298828,-36.010742,72.265625,-83.557121,9.0,17.0,-39.0
691562.0,0.322754,-1.467041,-0.161255,-49.133297,108.215324,-154.23584,9.0,17.0,-39.0
691594.0,0.508667,-1.646606,-0.219482,-64.819336,191.162094,-216.491684,9.0,17.0,-39.0
691627.0,1.124023,-0.829712,-0.506836,-36.743164,136.230469,-202.331528,13.0,19.0,-31.0
691658.0,-0.262451,-0.364014,-0.486938,43.212887,-24.29199,-93.872063,13.0,19.0,-31.0
691689.0,-0.210327,-0.557617,-0.451294,-0.854492,55.603024,-17.211914,13.0,19.0,-31.0
691723.0,0.262817,-0.533813,0.275024,10.009766,250.915512,184.753403,13.0,24.0,-24.0
691758.0,0.05835,-0.412354,0.166992,6.286621,117.736809,116.699211,13.0,24.0,-24.0
691789.0,-0.058838,-0.671387,0.027588,63.720699,143.371582,198.913559,13.0,24.0,-24.0
691821.0,0.225464,-0.869873,-0.001953,73.791504,120.727531,209.2285,5.0,30.0,-14.0
691852.0,-0.067749,-1.245605,0.095337,95.947258,93.383781,216.79686,5.0,30.0,-14.0
691883.0,0.106201,-1.266602,0.123657,101.318352,73.425293,192.199692,5.0,30.0,-14.0
691915.0,0.066528,-1.290649,0.109375,103.576653,5.92041,186.462387,-6.0,28.0,-18.0
691946.0,-0.061768,-1.423706,0.036133,62.07275,45.593258,186.645493,-6.0,28.0,-18.0
691977.0,-0.073853,-1.353394,-0.024536,19.348145,89.782707,183.898911,-6.0,28.0,-18.0
692009.0,0.066284,-1.292969,-0.128784,-2.563476,116.333,162.780746,-13.0,23.0,-17.0
692040.0,-0.221191,-1.306274,-0.080078,-17.089844,142.822266,130.065918,-13.0,23.0,-17.0
692071.0,-0.074463,-1.127563,-0.032349,-33.203125,136.047363,74.401855,-13.0,23.0,-17.0
692103.0,0.115967,-1.100708,-0.115112,-29.846189,48.706051,-2.13623,-15.0,22.0,-11.0
692134.0,0.261475,-0.97937,-0.362305,-26.245115,-26.123045,-56.823727,-15.0,22.0,-11.0
692165.0,1.154663,-0.822876,-0.491089,2.868652,33.14209,-12.451171,-15.0,22.0,-11.0
692197.0,0.22522,-1.107178,-0.148437,-19.226074,-20.1416,-48.21777,-14.0,23.0,-14.0
692229.0,-0.071045,-1.017822,-0.329712,-3.967285,-35.27832,-54.504391,-14.0,23.0,-14.0
692260.0,0.331055,-0.905029,-0.339355,-3.417969,14.160155,-25.634764,-14.0,23.0,-14.0
692293.0,0.328003,-0.842896,-0.394653,5.859375,-25.024412,-33.996582,-10.0,25.0,-9.0
692324.0,0.284424,-0.90332,-0.391357,11.474608,-12.878417,-21.728514,-10.0,25.0,-9.0
692356.0,0.199585,-0.908203,-0.353394,0.427246,24.780272,-21.118162,-10.0,25.0,-9.0
692388.0,0.302612,-0.968994,-0.352783,-6.103515,28.137205,-24.29199,-10.0,28.0,-11.0
692419.0,0.322144,-0.880615,-0.37207,-5.004883,11.657714,-19.958496,-10.0,28.0,-11.0
692451.0,0.221802,-0.933472,-0.354248,-6.103515,6.347656,-15.319823,-10.0,28.0,-11.0
692483.0,0.226318,-0.906494,-0.353027,-8.239746,14.709472,-10.681151,-10.0,28.0,-11.0
692514.0,0.258911,-0.916626,-0.35791,-7.751464,9.643555,-2.075195,-10.0,28.0,-11.0
692545.0,0.229492,-0.905273,-0.348999,-8.117676,12.329101,0.793457,-10.0,28.0,-11.0
692576.0,0.285034,-0.898193,-0.350098,-5.615234,10.620116,1.159668,-10.0,28.0,-11.0
692609.0,0.240601,-0.931152,-0.335327,-6.286621,13.793944,-4.394531,-11.0,27.0,-8.0
692642.0,0.25,-0.921875,-0.348755,-5.126953,12.512206,-2.807617,-11.0,27.0,-8.0
692673.0,0.237549,-0.922363,-0.338623,-8.544922,21.057127,-11.718749,-11.0,27.0,-8.0
692706.0,0.250488,-0.914917,-0.353882,-12.145995,24.04785,-20.38574,-8.0,29.0,-6.0
692737.0,0.240601,-0.916748,-0.348267,-12.451171,21.362303,-25.512693,-8.0,29.0,-6.0
692769.0,0.1875,-0.924072,-0.329956,-12.634276,23.925779,-26.855467,-8.0,29.0,-6.0
692801.0,0.154541,-0.939453,-0.298462,-9.70459,22.949217,-27.770994,-7.0,28.0,-7.0
692833.0,0.140747,-0.974365,-0.342529,-8.605957,26.916502,-26.30615,-7.0,28.0,-7.0
692868.0,0.121094,-0.953003,-0.355713,-13.244628,29.785154,-24.963377,-7.0,28.0,-7.0
692900.0,0.107178,-1.049805,-0.324463,-14.404296,40.222164,-21.667479,-7.0,29.0,-1.0
692932.0,0.106812,-1.027832,-0.358032,-25.817869,59.692379,-22.827147,-7.0,29.0,-1.0
692963.0,0.152222,-1.118774,-0.437622,-45.837399,93.139641,-31.738279,-7.0,29.0,-1.0
692995.0,0.078125,-1.100098,-0.404541,-36.621094,115.783684,-29.541014,-5.0,30.0,2.0
693027.0,0.050049,-1.388306,-0.304565,-17.333984,171.997055,-69.458008,-5.0,30.0,2.0
693058.0,0.281128,-1.702759,-0.228149,-12.145995,242.12645,-131.835937,-5.0,30.0,2.0
693091.0,0.316284,-1.463623,-0.403198,-4.760742,274.902344,-149.780273,1.0,32.0,17.0
693123.0,0.092285,-0.656006,-0.698853,41.625973,191.3452,-106.750481,1.0,32.0,17.0
693154.0,-0.278442,-0.775757,-0.668213,101.257317,131.347656,-74.21875,1.0,32.0,17.0
693186.0,-0.131348,-0.696777,-0.334229,88.439934,197.143539,-2.929687,0.0,24.0,23.0
693217.0,-0.048584,-0.678589,0.171387,67.687988,258.239746,47.119137,0.0,24.0,23.0
693248.0,0.393433,-0.536133,0.623657,48.522945,225.707993,65.734863,0.0,24.0,23.0
693281.0,0.342896,-0.394653,0.360352,63.171383,111.450188,64.331055,-2.0,14.0,32.0
693314.0,0.356689,-0.544434,0.301392,62.866207,67.382812,149.291992,-2.0,14.0,32.0
693345.0,0.302979,-0.789185,0.271484,48.522945,36.682129,182.678207,-2.0,14.0,32.0
693377.0,0.166626,-0.993408,0.282959,25.695799,46.752926,215.454086,-9.0,7.0,27.0
693408.0,0.263794,-1.169189,0.192749,22.094725,23.254393,219.665512,-9.0,7.0,27.0
693440.0,0.194336,-1.266357,0.036621,17.700195,-15.99121,223.022446,-9.0,7.0,27.0
693475.0,0.095947,-1.462524,-0.264893,13.183593,-18.310547,223.754868,-12.0,-1.0,30.0
693510.0,0.055664,-1.43103,-0.267456,-6.286621,24.902342,222.778305,-12.0,-1.0,30.0
693542.0,0.227173,-1.462036,-0.205933,-8.728027,27.893064,185.424789,-12.0,-1.0,30.0
693575.0,-0.07019,-1.275757,-0.27417,-15.319823,1.647949,127.197258,-13.0,-10.0,35.0
693609.0,-0.300415,-1.040649,-0.280518,-21.362303,48.889156,79.345703,-13.0,-10.0,35.0
693641.0,-0.071411,-1.035034,-0.215332,-20.26367,59.020992,-2.441406,-13.0,-10.0,35.0
693675.0,0.037598,-1.0271,-0.283936,-18.066406,7.324218,-68.237305,-10.0,-15.0,25.0
693711.0,1.912964,-0.788452,-0.51001,14.770507,79.89502,-11.352538,-10.0,-15.0,25.0
693743.0,0.296021,-0.9823,-0.026733,-1.831055,18.310547,-54.016109,-10.0,-15.0,25.0
693778.0,0.613647,-1.106323,-0.296021,53.222652,-108.154289,-105.834953,-13.0,-11.0,29.0
693809.0,0.104126,-0.764771,-0.134521,20.080564,-30.761717,-76.293945,-13.0,-11.0,29.0
693841.0,0.332397,-0.89856,-0.316772,41.381832,-32.165527,-58.410641,-13.0,-11.0,29.0
693876.0,0.024536,-1.052368,-0.261353,17.39502,30.273436,-55.847164,-15.0,-10.0,35.0
693910.0,0.315063,-0.948975,-0.31543,13.549804,45.898434,-43.334957,-15.0,-10.0,35.0
693942.0,0.318604,-0.92688,-0.335205,5.554199,27.770994,-40.344234,-15.0,-10.0,35.0
693976.0,0.299072,-0.928833,-0.3302,6.713867,14.09912,-31.616209,-17.0,-7.0,27.0
694009.0,0.200073,-0.928955,-0.338379,0.183105,15.014647,-30.456541,-17.0,-7.0,27.0
694043.0,0.262939,-0.896851,-0.32959,-6.469726,35.03418,-20.751951,-17.0,-7.0,27.0
694079.0,0.203857,-0.921143,-0.303467,1.647949,17.822266,-20.446775,-16.0,-8.0,31.0
694111.0,0.212769,-0.961548,-0.281616,7.141113,11.230468,-16.662598,-16.0,-8.0,31.0
694144.0,0.162964,-0.963013,-0.301392,4.333496,21.850584,-21.728514,-16.0,-8.0,31.0
694176.0,0.194092,-0.947632,-0.331665,3.845215,23.559568,-25.756834,-16.0,-8.0,22.0
694211.0,0.127563,-0.969116,-0.321045,-2.197266,30.151365,-38.391113,-16.0,-8.0,22.0
694244.0,0.157227,-0.976685,-0.328979,0.0,32.165527,-29.418943,-16.0,-8.0,22.0
694276.0,0.091919,-0.997437,-0.321533,1.464844,29.418943,-21.972654,-17.0,-9.0,25.0
694308.0,0.131958,-1.011108,-0.369141,-0.854492,34.179687,-29.052732,-17.0,-9.0,25.0
694339.0,0.142944,-1.058594,-0.350708,-4.638672,37.963867,-38.635254,-17.0,-9.0,25.0
694371.0,0.217285,-1.072388,-0.372314,-1.586914,31.494139,-32.836914,-16.0,-9.0,23.0
694402.0,0.119507,-1.061646,-0.36731,-1.037598,33.26416,-48.889156,-16.0,-9.0,23.0
694433.0,0.0271,-1.065308,-0.314453,-5.798339,39.489746,-60.668941,-16.0,-9.0,23.0
694466.0,0.197998,-1.31311,-0.325562,-19.958496,49.194332,-98.388664,-17.0,-6.0,27.0
694497.0,0.104858,-1.246094,-0.275513,-13.732909,52.551266,-117.736809,-17.0,-6.0,27.0
694528.0,0.166382,-1.386475,-0.205322,-18.615723,103.027336,-119.934074,-17.0,-6.0,27.0
694561.0,0.405151,-1.134766,-0.254761,-50.170895,149.536133,-139.282227,-16.0,-9.0,27.0
694592.0,0.483398,-0.713135,-0.190552,-34.667969,104.49218,-107.055656,-16.0,-9.0,27.0
694623.0,-0.66394,-0.813477,-0.207153,-16.784668,55.603024,-58.715816,-16.0,-9.0,27.0
694655.0,-0.39978,-0.963745,-0.523071,-36.315918,64.819336,-87.951653,-14.0,-6.0,26.0
694686.0,-0.171631,-0.583008,-0.416626,-5.737304,53.100582,-91.552727,-14.0,-6.0,26.0
694717.0,-0.269165,-0.244507,-0.185913,13.122558,-22.216795,-33.874512,-14.0,-6.0,26.0
694749.0,0.670776,-0.416748,0.012329,1.159668,105.224602,98.144524,-16.0,-11.0,30.0
694783.0,0.381714,-0.644043,0.363159,-8.178711,55.114742,135.620117,-16.0,-11.0,30.0
694814.0,0.211304,-0.633545,0.037476,17.822266,-56.27441,149.414062,-16.0,-11.0,30.0
694847.0,0.152222,-1.031128,-0.075439,41.809078,-2.197266,228.63768,-14.0,-19.0,29.0
694880.0,0.158081,-1.25769,-0.050781,41.442867,-26.000975,216.491684,-14.0,-19.0,29.0
694912.0,0.028687,-1.404907,-0.040039,43.518063,-23.803709,233.276352,-14.0,-19.0,29.0
694945.0,0.093628,-1.418091,-0.081055,36.499023,-77.819824,205.871567,-8.0,-24.0,29.0
694976.0,-0.027222,-1.574463,-0.223999,37.780762,-134.155273,190.185532,-8.0,-24.0,29.0
695010.0,-0.217285,-1.425171,-0.338257,-4.02832,-114.807121,160.461426,-8.0,-24.0,29.0
695042.0,-0.214355,-1.240601,-0.444336,4.150391,-89.965813,127.80761,-7.0,-22.0,43.0
695073.0,-0.487915,-1.185913,-0.408447,10.986327,-71.655273,81.05468,-7.0,-22.0,43.0
695104.0,-0.342651,-1.062378,-0.26062,14.831542,-48.767086,32.287598,-7.0,-22.0,43.0
695136.0,-0.255737,-1.029175,-0.318115,18.127441,-78.369141,-33.996582,-4.0,-16.0,37.0
695167.0,-0.163086,-0.997925,-0.370239,26.489256,-85.388176,-77.514648,-4.0,-16.0,37.0
695199.0,1.702026,-1.130859,0.072388,15.747069,72.998047,-0.793457,-4.0,-16.0,37.0
695231.0,-0.16333,-1.05127,-0.071045,4.455566,0.610352,-75.317383,-4.0,-16.0,37.0
695265.0,0.604126,-1.085327,-0.293579,41.809078,-7.080078,-62.927242,-9.0,-16.0,37.0
695296.0,0.31958,-0.825928,-0.16394,26.855467,-10.620116,-57.800289,-9.0,-16.0,37.0
695327.0,0.235962,-0.900146,-0.244995,38.452148,-30.761717,-31.494139,-9.0,-16.0,37.0
695359.0,0.18457,-1.043457,-0.182617,26.000975,5.310058,-41.137691,-13.0,-13.0,35.0
695391.0,0.247925,-0.98877,-0.149658,28.381346,2.258301,-35.217285,-13.0,-13.0,35.0
695422.0,0.249268,-1.012207,-0.21167,27.282713,-0.183105,-30.151365,-13.0,-13.0,35.0
695455.0,0.319702,-0.92981,-0.245117,24.353025,-10.620116,-25.634764,-13.0,-14.0,34.0
695486.0,0.198608,-0.979614,-0.249023,22.094725,-20.1416,-25.756834,-13.0,-14.0,34.0
695517.0,0.140991,-0.985352,-0.242065,10.375976,11.901855,-15.014647,-13.0,-14.0,34.0
695549.0,0.326782,-0.933472,-0.226807,14.22119,7.751464,-10.559081,-14.0,-13.0,38.0
695580.0,0.227295,-0.940186,-0.231445,16.418457,-2.990722,-14.465331,-14.0,-13.0,38.0
695612.0,0.239502,-0.962036,-0.28479,16.540527,2.685547,-15.686034,-14.0,-13.0,38.0
695644.0,0.187988,-0.947998,-0.283569,11.047362,2.685547,-16.845703,-17.0,-10.0,30.0
695675.0,0.257202,-0.949097,-0.291016,7.263183,11.413573,-15.014647,-17.0,-10.0,30.0
695707.0,0.207031,-0.950806,-0.281128,6.16455,1.647949,-21.728514,-17.0,-10.0,30.0
695740.0,0.196777,-0.954956,-0.290283,4.516602,3.479004,-19.042969,-19.0,-10.0,36.0
695772.0,0.136597,-0.950562,-0.294312,0.671387,7.507324,-25.146482,-19.0,-10.0,36.0
695803.0,0.133667,-0.966919,-0.269409,-0.12207,13.427733,-18.249512,-19.0,-10.0,36.0
695836.0,0.140381,-0.958008,-0.264771,1.770019,18.066406,-13.366698,-16.0,-9.0,27.0
695867.0,0.180176,-0.982544,-0.349731,-2.990722,20.507811,-13.000487,-16.0,-9.0,27.0
695898.0,0.152222,-0.974487,-0.324829,-12.695312,24.29199,-15.014647,-16.0,-9.0,27.0
695930.0,0.147339,-1.005737,-0.321533,-19.897461,37.902832,-16.540527,-18.0,-7.0,31.0
695961.0,0.206177,-1.109253,-0.318359,-30.334471,49.377438,-26.916502,-18.0,-7.0,31.0
695992.0,0.171631,-1.105347,-0.319946,-40.344234,46.264645,-43.579098,-18.0,-7.0,31.0
696025.0,0.131592,-1.185547,-0.314087,-35.461426,52.490231,-46.203609,-17.0,-11.0,31.0
696057.0,0.157593,-1.257202,-0.303589,-28.625486,101.806633,-83.435051,-17.0,-11.0,31.0
696088.0,0.022217,-1.323242,-0.163452,-29.602049,153.076172,-115.600578,-17.0,-11.0,31.0
696121.0,0.106445,-1.342163,-0.263306,-29.235838,221.801743,-129.760742,-14.0,-18.0,28.0
696153.0,0.203735,-0.797363,-0.513794,-20.019531,244.934067,-114.501945,-14.0,-18.0,28.0
696184.0,0.058472,-0.502441,-0.379761,36.743164,209.899887,-67.932129,-14.0,-18.0,28.0
696217.0,-0.191284,-0.471313,-0.388306,71.228027,209.533676,19.53125,-20.0,-27.0,18.0
696249.0,0.370361,-0.435913,-0.274414,77.331543,307.617187,130.615234,-20.0,-27.0,18.0
696280.0,0.44751,-0.847168,0.245728,60.852047,342.834442,152.038574,-20.0,-27.0,18.0
696311.0,0.406738,-0.741577,0.240356,82.519524,297.790527,134.82666,-20.0,-27.0,18.0
696344.0,0.423828,-0.928833,0.168091,103.210442,276.611328,178.588852,-16.0,-39.0,-7.0
696375.0,0.403931,-1.15686,0.208984,103.942863,259.521484,188.598618,-16.0,-39.0,-7.0
696406.0,0.499878,-1.201416,0.310547,100.769035,229.064926,185.974106,-16.0,-39.0,-7.0
696438.0,0.531616,-1.223755,0.403931,84.655754,174.621567,189.392075,-1.0,-38.0,-24.0
696469.0,0.478516,-1.324097,0.441772,54.38232,112.976067,189.941391,-1.0,-38.0,-24.0
696500.0,0.353271,-1.362915,0.137939,18.432617,52.551266,172.729477,-1.0,-38.0,-24.0
696532.0,0.169556,-1.268799,-0.199219,-2.380371,10.375976,150.756836,10.0,-38.0,-25.0
696563.0,-0.102051,-1.226196,-0.351318,-10.803222,5.981445,122.00927,10.0,-38.0,-25.0
696594.0,-0.144897,-1.047852,-0.609619,-17.63916,13.122558,56.03027,10.0,-38.0,-25.0
696626.0,-0.205933,-0.915894,-0.660767,-14.09912,70.373535,11.901855,13.0,-36.0,-19.0
696658.0,0.033569,-0.868896,-0.374756,-25.512693,140.258789,-4.211426,13.0,-36.0,-19.0
696690.0,0.347534,-0.892578,-0.161499,-29.357908,118.34716,-23.071287,13.0,-36.0,-19.0
696722.0,0.37854,-0.846191,-0.104858,-21.240232,53.955074,-44.31152,12.0,-33.0,-27.0
696753.0,1.325928,-0.644165,-0.507202,-14.09912,-5.798339,-42.297359,12.0,-33.0,-27.0
696784.0,0.786377,-1.118652,-0.132202,5.065917,31.677244,8.361816,12.0,-33.0,-27.0
696816.0,-0.566528,-1.382568,-0.332397,-11.291503,-59.570309,-91.00341,12.0,-32.0,-31.0
696848.0,0.512085,-0.726562,-0.421509,-11.779784,46.386715,-40.466305,12.0,-32.0,-31.0
696880.0,0.207886,-0.84314,-0.470581,-10.986327,9.70459,-33.38623,12.0,-32.0,-31.0
696912.0,0.232056,-0.905396,-0.355957,-10.803222,42.602535,-8.850098,10.0,-29.0,-31.0
696944.0,0.265015,-0.926758,-0.343018,-3.173828,30.334471,-15.502929,10.0,-29.0,-31.0
696975.0,0.298096,-0.923706,-0.342041,-3.234863,30.822752,-13.97705,10.0,-29.0,-31.0
697008.0,0.285278,-0.904419,-0.411377,-2.441406,7.324218,-18.737793,8.0,-26.0,-25.0
697040.0,0.171631,-0.907104,-0.385986,-4.699707,3.967285,-20.629881,8.0,-26.0,-25.0
697072.0,0.177246,-0.936157,-0.335693,-9.643555,7.93457,-11.596679,8.0,-26.0,-25.0
697104.0,0.232178,-0.949707,-0.32605,-2.13623,-2.502441,-9.521484,7.0,-31.0,-32.0
697136.0,0.162964,-0.918091,-0.357056,-3.234863,2.197266,-6.04248,7.0,-31.0,-32.0
697168.0,0.221436,-0.927246,-0.333008,-6.347656,6.652832,-10.498046,7.0,-31.0,-32.0
697200.0,0.13855,-0.952759,-0.337402,-3.295898,4.943848,-5.554199,8.0,-28.0,-30.0
697231.0,0.230591,-0.901123,-0.347412,-5.187988,15.441894,-8.300781,8.0,-28.0,-30.0
697262.0,0.172607,-0.937012,-0.352173,-2.990722,5.493164,-13.061522,8.0,-28.0,-30.0
697293.0,0.156372,-0.9375,-0.325684,-2.258301,14.892577,-10.864257,8.0,-28.0,-30.0
697326.0,0.14978,-0.951416,-0.340576,-1.770019,22.766111,-7.873535,7.0,-28.0,-29.0
697357.0,0.190796,-0.947754,-0.374023,-4.394531,23.071287,-15.014647,7.0,-28.0,-29.0
697389.0,0.169312,-0.963501,-0.358887,-6.225585,23.925779,-17.028809,7.0,-28.0,-29.0
697421.0,0.207764,-0.968628,-0.391357,-6.286621,23.315428,-15.624999,7.0,-24.0,-35.0
697452.0,0.089844,-0.98291,-0.361572,-8.972168,24.841307,-19.53125,7.0,-24.0,-35.0
697484.0,0.102905,-1.084106,-0.317261,-7.873535,39.550781,-2.929687,7.0,-24.0,-35.0
697516.0,0.185303,-1.100464,-0.3479,-19.836426,43.395992,-15.930175,7.0,-23.0,-32.0
697547.0,0.276367,-1.235352,-0.364014,-26.794432,41.442867,-56.701656,7.0,-23.0,-32.0
697578.0,0.26001,-1.372925,-0.416016,-29.418943,77.575684,-99.426262,7.0,-23.0,-32.0
697610.0,0.261719,-1.455566,-0.32605,-36.376953,134.277344,-164.489731,1.0,-17.0,-31.0
697642.0,0.42688,-1.598022,-0.289917,-51.696774,262.573242,-207.824692,1.0,-17.0,-31.0
697673.0,0.757568,-0.741943,-0.494263,-16.662598,191.711411,-158.02002,1.0,-17.0,-31.0
697705.0,-0.444092,-0.645996,-0.408691,34.912109,88.928215,-97.900383,0.0,-4.0,-40.0
697736.0,-0.53772,-0.659058,-0.515869,62.499996,74.951172,-60.852047,0.0,-4.0,-40.0
697767.0,0.112915,-0.343262,0.011841,45.898434,106.445305,-41.931149,0.0,-4.0,-40.0
697799.0,0.584106,-0.199097,0.318481,40.893551,145.446777,121.948235,0.0,1.0,-38.0
697830.0,0.289917,-0.735107,0.473022,47.485348,99.365227,146.057129,0.0,1.0,-38.0
697861.0,0.191772,-0.665039,0.269165,39.245605,47.363277,158.02002,0.0,1.0,-38.0
697893.0,0.33606,-0.825073,0.286743,37.231445,51.330563,217.102036,4.0,1.0,-29.0
697923.0,0.255615,-1.140991,0.212524,33.569336,28.137205,240.417465,4.0,1.0,-29.0
697954.0,0.139404,-1.376831,0.160767,30.395506,15.258788,245.300278,4.0,1.0,-29.0
697986.0,0.140625,-1.487671,0.053711,35.15625,-40.64941,224.73143,14.0,0.0,-36.0
698017.0,0.037354,-1.480591,-0.082642,27.404783,-89.050285,212.951645,14.0,0.0,-36.0
698048.0,-0.060425,-1.618774,-0.275269,5.554199,-71.777344,196.105942,14.0,0.0,-36.0
698079.0,-0.213013,-1.347778,-0.471558,-28.869627,-52.490231,168.212875,14.0,0.0,-36.0
698111.0,-0.45166,-1.227905,-0.732666,-15.86914,-26.855467,121.643059,14.0,0.0,-36.0
698142.0,-0.724731,-1.010498,-0.609375,1.403808,76.538086,48.828121,14.0,0.0,-36.0
698173.0,-0.213745,-1.12146,-0.225586,5.249023,89.843742,-20.446775,14.0,0.0,-36.0
698205.0,0.133545,-1.059326,-0.027954,-5.249023,-10.986327,-89.355461,14.0,6.0,-40.0
698236.0,1.892822,-0.715332,-0.100098,21.972654,17.150879,1.525879,14.0,6.0,-40.0
698267.0,-0.554321,-1.016724,-0.449829,33.325195,-84.106438,-98.083488,14.0,6.0,-40.0
698299.0,0.494751,-1.063843,-0.235596,75.317383,-109.008781,-91.918938,17.0,1.0,-39.0
698330.0,0.05542,-0.955933,-0.310547,42.41943,-55.725094,-60.974117,17.0,1.0,-39.0
698361.0,-0.156982,-1.025635,-0.265137,9.887695,44.372555,-42.602535,17.0,1.0,-39.0
698393.0,0.433838,-0.990356,-0.266724,0.854492,88.928215,-34.301758,18.0,1.0,-38.0
698424.0,0.487549,-0.886719,-0.266846,16.540527,12.023925,-34.545898,18.0,1.0,-38.0
698455.0,0.254395,-0.937866,-0.30957,15.808105,-8.483887,-29.541014,18.0,1.0,-38.0
698487.0,0.323364,-0.936401,-0.296021,10.742187,-4.821777,-25.207518,16.0,2.0,-35.0
698519.0,0.133423,-0.913452,-0.319824,6.408691,-1.770019,-25.939939,16.0,2.0,-35.0
698550.0,0.237305,-0.93811,-0.289673,-3.234863,39.306641,-12.634276,16.0,2.0,-35.0
698582.0,0.327759,-0.935913,-0.295166,5.798339,16.479492,-13.549804,21.0,4.0,-38.0
698613.0,0.153809,-0.923828,-0.27832,6.347656,10.375976,-13.122558,21.0,4.0,-38.0
698644.0,0.296631,-0.965454,-0.311035,4.272461,20.1416,-12.756347,21.0,4.0,-38.0
698676.0,0.234131,-0.914551,-0.348267,1.403808,23.925779,-3.967285,21.0,1.0,-39.0
698710.0,0.145508,-0.952637,-0.292969,-4.821777,24.719236,-18.737793,21.0,1.0,-39.0
698741.0,0.258057,-0.932373,-0.320068,-3.417969,28.503416,-21.850584,21.0,1.0,-39.0
698773.0,0.202515,-0.962158,-0.326782,0.549316,24.963377,-12.20703,22.0,5.0,-40.0
698804.0,0.185669,-0.930786,-0.317383,-3.295898,28.015135,-23.498533,22.0,5.0,-40.0
698836.0,0.185303,-1.009399,-0.339478,-2.319336,25.451658,-27.526854,22.0,5.0,-40.0
698867.0,0.215332,-0.980225,-0.360718,-1.403808,22.888182,-17.089844,22.0,5.0,-40.0
698899.0,0.171753,-1.03418,-0.344116,-2.868652,24.16992,-9.338379,16.0,7.0,-36.0
698931.0,0.202026,-1.085327,-0.338135,-13.366698,30.517576,-26.367186,16.0,7.0,-36.0
698962.0,0.286499,-1.202637,-0.351929,-22.644041,34.545898,-49.194332,16.0,7.0,-36.0
698994.0,0.240967,-1.258789,-0.325073,-23.620604,46.142574,-82.94677,19.0,6.0,-39.0
699025.0,0.281006,-1.344971,-0.283936,-30.029295,52.856441,-125.976555,19.0,6.0,-39.0
699057.0,0.271362,-1.469971,-0.121216,-48.583981,105.957024,-168.701157,19.0,6.0,-39.0
699089.0,0.745239,-1.339478,-0.20874,-78.125,167.053207,-211.12059,15.0,11.0,-35.0
699121.0,0.75061,-0.575317,-0.380615,-32.775879,55.908199,-169.128403,15.0,11.0,-35.0
699152.0,-0.301636,-0.414062,-0.457153,23.864744,-21.972654,-59.93652,15.0,11.0,-35.0
699184.0,-1.356567,-1.128662,-0.579956,7.690429,35.705566,-126.831047,16.0,14.0,-34.0
699215.0,0.971191,-0.110718,-0.226929,-19.165039,120.23925,35.217285,16.0,14.0,-34.0
699246.0,0.180786,-0.420288,0.319336,3.845215,130.371094,184.814438,16.0,14.0,-34.0
699277.0,0.111816,-0.637329,-0.063354,6.958007,-1.647949,111.267082,10.0,19.0,-27.0
699308.0,0.070923,-0.690918,-0.062012,26.733397,38.146973,177.490219,10.0,19.0,-27.0
699339.0,0.350464,-0.89978,-0.101563,51.147457,-0.793457,209.960922,10.0,19.0,-27.0
699370.0,0.023071,-1.214111,-0.094238,59.448238,-12.145995,221.984848,2.0,20.0,-32.0
699401.0,0.051025,-1.372192,-0.064941,67.932129,-12.390136,219.909653,2.0,20.0,-32.0
699432.0,0.22876,-1.274658,-0.051758,64.453125,-80.444328,203.735336,2.0,20.0,-32.0
699464.0,0.077637,-1.599243,-0.245972,66.345215,-91.308586,206.359848,0.0,10.0,-35.0
699496.0,-0.109009,-1.434204,-0.289917,26.855467,-52.001949,192.077621,0.0,10.0,-35.0
699527.0,-0.055542,-1.320679,-0.342163,20.507811,-5.249023,169.555649,0.0,10.0,-35.0
699559.0,-0.320679,-1.309448,-0.288086,6.04248,51.940914,133.544922,-3.0,4.0,-39.0
699590.0,-0.405762,-1.131958,-0.081665,-14.404296,101.257317,78.186035,-3.0,4.0,-39.0
699621.0,-0.215088,-1.092651,-0.078735,-31.738279,76.904297,-0.366211,-3.0,4.0,-39.0
699652.0,-0.123413,-1.08374,-0.188965,-33.081055,41.931149,-68.908691,-3.0,4.0,-39.0
699684.0,0.72168,-0.994141,-0.680542,-33.38623,25.390623,-110.229485,-4.0,10.0,-39.0
699715.0,2.234497,-0.511841,0.000366,-9.82666,152.770996,20.1416,-4.0,10.0,-39.0
699747.0,-0.625488,-0.999146,-0.476074,32.470703,-108.093254,-89.050285,-4.0,10.0,-39.0
699779.0,0.565186,-1.244873,-0.265259,8.361816,-75.378418,-73.242187,-2.0,10.0,-33.0
699810.0,-0.015259,-0.797729,-0.298828,16.601562,-5.92041,-65.795898,-2.0,10.0,-33.0
699841.0,0.320557,-0.985352,-0.328125,18.737793,-15.563964,-43.273922,-2.0,10.0,-33.0
699873.0,0.324463,-0.907837,-0.363525,15.808105,15.441894,-32.958984,0.0,10.0,-33.0
699905.0,0.287598,-0.919922,-0.373047,0.915527,35.095215,-34.362793,0.0,10.0,-33.0
699936.0,0.389404,-0.882324,-0.326294,-4.089355,29.479979,-31.005857,0.0,10.0,-33.0
699969.0,0.333496,-0.908447,-0.33606,5.859375,-3.234863,-25.695799,0.0,15.0,-31.0
700001.0,0.207764,-0.925171,-0.361816,-0.793457,12.329101,-24.353025,0.0,15.0,-31.0
700032.0,0.269897,-0.90271,-0.353638,-7.385253,23.864744,-19.470215,0.0,15.0,-31.0
700064.0,0.186279,-0.939697,-0.325562,-7.995605,23.681639,-13.671874,0.0,14.0,-28.0
700095.0,0.275024,-0.904663,-0.321045,-8.544922,37.414551,-9.277344,0.0,14.0,-28.0
700126.0,0.258301,-0.921753,-0.345825,-4.089355,22.094725,-8.422852,0.0,14.0,-28.0
700158.0,0.229126,-0.918213,-0.348022,-3.479004,19.714355,-5.493164,2.0,17.0,-36.0
700189.0,0.215088,-0.920288,-0.338623,-3.540039,19.775391,-2.319336,2.0,17.0,-36.0
700220.0,0.208008,-0.934204,-0.337769,-1.89209,24.658201,-0.549316,2.0,17.0,-36.0
700252.0,0.251099,-0.907715,-0.349243,-1.770019,28.625486,-2.01416,0.0,17.0,-27.0
700283.0,0.253906,-0.910156,-0.384766,-2.258301,27.404783,-7.141113,0.0,17.0,-27.0
700314.0,0.239502,-0.906616,-0.368652,-3.90625,26.245115,-11.474608,0.0,17.0,-27.0
700346.0,0.164429,-0.959229,-0.351196,-3.234863,25.695799,-13.427733,2.0,17.0,-33.0
700377.0,0.230591,-0.936768,-0.36499,-5.981445,35.461426,-13.122558,2.0,17.0,-33.0
700408.0,0.189087,-0.943726,-0.356567,-2.319336,26.428221,-8.666992,2.0,17.0,-33.0
700439.0,0.199829,-0.960693,-0.38501,-3.173828,22.766111,-10.19287,2.0,17.0,-33.0
700471.0,0.157104,-0.983643,-0.384033,-10.131835,35.888672,-13.366698,3.0,21.0,-29.0
700502.0,0.155518,-1.003662,-0.376831,-15.380858,39.733887,-16.784668,3.0,21.0,-29.0
700533.0,0.210937,-1.091797,-0.360352,-19.65332,45.043941,-20.629881,3.0,21.0,-29.0
700566.0,0.186768,-1.241211,-0.454712,-27.832029,62.561031,-55.114742,2.0,24.0,-27.0
700598.0,0.186157,-1.205322,-0.356812,-37.475586,100.524895,-80.078125,2.0,24.0,-27.0
700629.0,0.18042,-1.214478,-0.317749,-31.127928,123.596184,-121.704094,2.0,24.0,-27.0
700661.0,0.1604,-1.439941,-0.336792,-30.456541,194.457993,-155.639648,7.0,28.0,-19.0
700693.0,0.583862,-1.09729,-0.498535,-38.513184,264.953613,-135.314941,7.0,28.0,-19.0
700724.0,-0.194946,-0.631714,-0.416382,8.544922,208.068832,-121.704094,7.0,28.0,-19.0
700756.0,-0.624512,-0.817993,-0.74292,71.838379,165.710434,-77.758789,14.0,36.0,-4.0
700787.0,-0.44873,-0.78894,-0.362915,78.369141,224.304184,-16.174316,14.0,36.0,-4.0
700818.0,0.246948,-0.235596,-0.119629,89.11132,233.642563,21.972654,14.0,36.0,-4.0
700850.0,0.539551,-0.307251,0.227295,99.670403,270.202637,146.606445,12.0,31.0,9.0
700881.0,0.289185,-0.804077,0.446289,72.021484,221.801743,122.985832,12.0,31.0,9.0
700911.0,0.431152,-0.678833,0.315674,98.449699,170.593246,141.967773,12.0,31.0,9.0
700942.0,0.380493,-0.859619,0.330078,96.92382,171.264633,209.045395,0.0,26.0,17.0
700973.0,0.306885,-1.153931,0.357422,86.059563,174.316391,216.308578,0.0,26.0,17.0
701003.0,0.272461,-1.322388,0.291016,81.237785,164.184555,232.788071,0.0,26.0,17.0
701035.0,0.294556,-1.28894,0.254883,70.922852,105.895988,229.003891,-14.0,14.0,23.0
701066.0,0.339966,-1.435181,0.115234,68.237305,67.443848,232.299789,-14.0,14.0,23.0
701097.0,0.190063,-1.623291,0.024902,42.5415,55.236813,217.224106,-14.0,14.0,23.0
701127.0,0.021729,-1.483887,0.059082,-0.427246,62.011715,189.636215,-14.0,14.0,23.0
701159.0,0.091064,-1.388306,-0.093262,-18.310547,39.306641,143.127441,-20.0,1.0,25.0
701190.0,-0.46814,-1.127197,-0.250244,-28.07617,45.959469,97.167961,-20.0,1.0,25.0
701221.0,-0.329712,-1.060425,-0.233154,-33.996582,68.359375,27.770994,-20.0,1.0,25.0
701253.0,-0.031372,-0.93335,-0.411743,-31.066893,6.103515,-58.410641,-19.0,-1.0,24.0
701284.0,1.624756,-0.668701,-0.735718,29.357908,32.653809,-20.38574,-19.0,-1.0,24.0
701315.0,0.435913,-1.051392,-0.137329,7.080078,-40.344234,-48.522945,-19.0,-1.0,24.0
701347.0,-0.065308,-1.238525,-0.429932,46.56982,-133.666992,-95.642082,-17.0,2.0,21.0
701378.0,-0.029297,-0.7854,-0.204956,-1.647949,29.541014,-46.691891,-17.0,2.0,21.0
701409.0,0.376709,-1.010986,-0.279663,18.249512,9.277344,-41.076656,-17.0,2.0,21.0
701441.0,0.375122,-0.804687,-0.424072,0.061035,28.930662,-43.579098,-19.0,5.0,25.0
701472.0,0.325195,-0.985107,-0.328247,5.737304,8.239746,-38.513184,-19.0,5.0,25.0
701503.0,0.256348,-0.895142,-0.373779,-5.371093,2.746582,-37.29248,-19.0,5.0,25.0
701535.0,0.262695,-0.94397,-0.331787,-6.103515,-0.732422,-30.334471,-17.0,8.0,19.0
701566.0,0.233643,-0.923096,-0.312622,-7.873535,-2.197266,-24.902342,-17.0,8.0,19.0
701597.0,0.185791,-0.915405,-0.274658,-9.338379,9.643555,-15.686034,-17.0,8.0,19.0
701629.0,0.2229,-0.941772,-0.2771,-5.92041,6.958007,-3.90625,-16.0,6.0,23.0
701660.0,0.210083,-0.942383,-0.283203,-2.929687,5.676269,-6.225585,-16.0,6.0,23.0
701691.0,0.268433,-0.92334,-0.282349,0.915527,6.469726,-2.746582,-16.0,6.0,23.0
701723.0,0.167847,-0.941284,-0.305786,1.464844,7.446289,-6.16455,-17.0,7.0,23.0
701755.0,0.227905,-0.937744,-0.302856,4.699707,12.695312,-6.530761,-17.0,7.0,23.0
701787.0,0.186157,-0.925781,-0.269287,5.126953,22.644041,-5.493164,-17.0,7.0,23.0
701820.0,0.292358,-0.92688,-0.334351,7.324218,26.794432,-9.216309,-15.0,4.0,23.0
701852.0,0.067261,-0.978149,-0.283569,1.89209,43.518063,-15.99121,-15.0,4.0,23.0
701883.0,0.186157,-0.975342,-0.328003,-14.831542,89.660637,-15.99121,-15.0,4.0,23.0
701916.0,0.35437,-0.922607,-0.516235,-9.82666,59.082027,-14.831542,-15.0,5.0,26.0
701948.0,0.2146,-1.016846,-0.431396,-24.536131,54.565426,-30.822752,-15.0,5.0,26.0
701980.0,0.264893,-1.079468,-0.435547,-36.499023,71.960449,-56.213375,-15.0,5.0,26.0
702011.0,0.155273,-1.176025,-0.40332,-31.433104,74.707031,-61.828609,-15.0,5.0,26.0
702043.0,0.330811,-1.501953,-0.328247,-22.644041,123.657219,-106.50634,-14.0,5.0,26.0
702074.0,0.279175,-1.638184,0.015503,-23.742674,127.075188,-171.874985,-14.0,5.0,26.0
702105.0,0.476562,-1.788208,-0.241699,-33.630371,166.381821,-197.50975,-14.0,5.0,26.0
702137.0,1.011597,-0.882935,-0.494263,-37.109375,138.549805,-164.306625,-10.0,2.0,29.0
702172.0,-0.159668,-0.368408,-0.234741,32.226562,41.259762,-74.279785,-10.0,2.0,29.0
702203.0,-1.197388,-0.74231,-0.446045,34.240723,48.400875,-27.9541,-10.0,2.0,29.0
702236.0,0.695557,-0.574707,-0.209717,16.357422,93.261711,28.808592,-11.0,1.0,28.0
702267.0,0.203857,-0.49707,0.526001,2.075195,143.615723,174.011215,-11.0,1.0,28.0
702298.0,0.258545,-0.615234,0.187988,-5.371093,23.132322,129.394531,-11.0,1.0,28.0
702330.0,0.096191,-0.802246,0.091553,6.652832,65.795898,187.011703,-11.0,-11.0,32.0
702361.0,0.503052,-0.927368,0.132568,36.804199,10.437011,211.853012,-11.0,-11.0,32.0
702393.0,0.217041,-1.307373,0.108765,36.437988,-49.987789,229.980453,-11.0,-11.0,32.0
702425.0,0.158447,-1.396729,0.049805,33.569336,-74.09668,223.449692,-11.0,-16.0,29.0
702456.0,0.113647,-1.430298,-0.07312,24.353025,-140.563965,202.758774,-11.0,-16.0,29.0
702487.0,-0.104126,-1.627808,-0.256104,7.385253,-147.888184,183.105453,-11.0,-16.0,29.0
702519.0,-0.304932,-1.351074,-0.519043,-31.249998,-113.891594,145.935059,-8.0,-16.0,33.0
702550.0,-0.424683,-1.142822,-0.622681,-6.774902,-47.241207,102.966301,-8.0,-16.0,33.0
702582.0,-0.553955,-1.117798,-0.559814,2.685547,-1.220703,34.423828,-8.0,-16.0,33.0
702615.0,-0.381714,-1.034302,-0.346191,7.8125,18.798828,-28.137205,-4.0,-15.0,33.0
702646.0,0.100586,-1.058472,-0.291992,10.253905,-14.770507,-92.346184,-4.0,-15.0,33.0
702677.0,2.248901,-0.931641,0.08313,3.967285,98.388664,-11.291503,-4.0,-15.0,33.0
702709.0,-0.700562,-1.075928,-0.245972,15.563964,19.65332,-72.937012,-12.0,-16.0,34.0
702741.0,0.743042,-1.119873,-0.286987,52.490231,-30.395506,-67.138672,-12.0,-16.0,34.0
702772.0,-0.062256,-0.95105,-0.081909,37.536621,-49.255367,-70.495605,-12.0,-16.0,34.0
702804.0,0.260254,-0.877563,-0.291382,47.363277,-21.545408,-27.099607,-15.0,-8.0,31.0
702835.0,0.408325,-0.94751,-0.245117,31.005857,44.616695,-32.104492,-15.0,-8.0,31.0
702866.0,0.420044,-0.898437,-0.297974,32.531738,16.357422,-36.376953,-15.0,-8.0,31.0
702898.0,0.290283,-0.968506,-0.286133,33.569336,-6.04248,-35.03418,-14.0,-11.0,27.0
702929.0,0.259033,-0.968628,-0.251099,23.010252,-6.286621,-33.752441,-14.0,-11.0,27.0
702960.0,0.175781,-0.997803,-0.251099,14.953612,-0.549316,-32.226562,-14.0,-11.0,27.0
702992.0,0.162598,-0.950439,-0.2677,8.850098,27.770994,-18.310547,-14.0,-11.0,27.0
703024.0,0.293579,-0.948242,-0.270142,9.887695,27.832029,-13.427733,-16.0,-9.0,34.0
703056.0,0.280518,-0.95105,-0.286377,14.09912,19.226074,-26.794432,-16.0,-9.0,34.0
703088.0,0.199951,-0.954712,-0.309937,14.038085,24.475096,-4.211426,-16.0,-9.0,34.0
703121.0,0.222046,-0.934937,-0.305908,7.324218,26.916502,-21.850584,-17.0,-11.0,27.0
703152.0,0.206909,-0.95105,-0.31311,2.380371,27.709959,-32.287598,-17.0,-11.0,27.0
703183.0,0.178833,-0.970947,-0.302246,2.929687,23.925779,-34.912109,-17.0,-11.0,27.0
703215.0,0.149536,-1.004639,-0.311279,3.662109,26.855467,-23.010252,-14.0,-9.0,23.0
703249.0,0.130615,-0.992676,-0.323242,-1.037598,28.686522,-31.98242,-14.0,-9.0,23.0
703281.0,0.179932,-1.014404,-0.328003,-1.831055,27.343748,-39.0625,-14.0,-9.0,23.0
703313.0,0.192871,-1.054688,-0.327148,1.89209,20.324705,-30.639647,-17.0,-10.0,30.0
703345.0,0.110718,-1.063965,-0.348022,0.793457,20.38574,-33.691406,-17.0,-10.0,30.0
703376.0,0.177368,-1.060547,-0.403809,-5.92041,34.851074,-43.640133,-17.0,-10.0,30.0
703408.0,0.150391,-1.219849,-0.373047,-8.911133,45.532223,-70.495605,-17.0,-11.0,32.0
703439.0,0.06543,-1.153442,-0.259888,-18.432617,64.51416,-118.591301,-17.0,-11.0,32.0
703470.0,0.091797,-1.213989,-0.07959,-18.066406,75.012207,-95.825188,-17.0,-11.0,32.0
703504.0,0.373535,-1.454712,-0.330078,-35.949707,97.045891,-136.108398,-18.0,-8.0,31.0
703537.0,0.620239,-0.966431,-0.479614,-62.622066,148.498535,-185.302719,-18.0,-8.0,31.0
703570.0,0.25,-0.494141,-0.214844,-4.821777,45.776363,-70.19043,-18.0,-8.0,31.0
703602.0,-1.360718,-1.09729,-0.352905,6.835937,50.598141,-84.777824,-17.0,-7.0,33.0
703633.0,-0.267212,-0.722778,-0.533447,-26.794432,116.08886,-111.938469,-17.0,-7.0,33.0
703666.0,-0.001343,-0.087891,-0.174805,17.76123,54.870602,-30.517576,-17.0,-7.0,33.0
703698.0,0.64624,-0.127441,0.145264,12.145995,115.356438,123.046867,-18.0,-13.0,31.0
703729.0,0.234985,-0.812256,0.303101,18.493652,35.095215,132.507324,-18.0,-13.0,31.0
703760.0,0.249634,-0.632446,0.067871,25.451658,-1.098633,144.775391,-18.0,-13.0,31.0
703792.0,0.0625,-0.838623,0.026367,53.955074,25.024412,219.665512,-16.0,-19.0,23.0
703823.0,0.054077,-1.128296,-0.022949,43.762203,37.414551,241.638168,-16.0,-19.0,23.0
703854.0,-0.009399,-1.33252,-0.034546,47.851559,60.913082,249.755844,-16.0,-19.0,23.0
703886.0,0.191528,-1.317017,-0.03418,52.062984,56.945797,236.57225,-9.0,-33.0,22.0
703917.0,0.057983,-1.540527,-0.184082,74.21875,-0.366211,226.806625,-9.0,-33.0,22.0
703948.0,-0.194702,-1.644775,-0.212769,43.029781,28.07617,207.519516,-9.0,-33.0,22.0
703982.0,-0.233398,-1.339722,-0.100464,11.718749,64.147949,176.330551,0.0,-38.0,13.0
704014.0,-0.421021,-1.376221,-0.137573,-20.26367,123.840324,137.329102,0.0,-38.0,13.0
704049.0,-0.422974,-1.162476,-0.042847,-58.532711,218.322739,82.763664,0.0,-38.0,13.0
704081.0,-0.218262,-1.146362,-0.022217,-68.054199,186.889633,1.220703,5.0,-46.0,3.0
704113.0,0.241455,-1.139771,-0.036621,-59.387203,72.570801,-81.665031,5.0,-46.0,3.0
704146.0,0.796875,-0.682251,-0.868164,-37.963867,-51.940914,-114.624016,5.0,-46.0,3.0
704178.0,2.254272,-0.374512,-0.431763,25.329588,74.21875,62.377926,2.0,-45.0,3.0
704209.0,-1.452515,-1.534058,-0.180542,29.296873,-71.594238,-46.630856,2.0,-45.0,3.0
704241.0,0.680542,-1.240112,-0.526978,-36.804199,34.179687,-63.720699,2.0,-45.0,3.0
704274.0,0.189087,-0.884033,-0.217773,1.037598,64.575195,-24.780272,-1.0,-45.0,3.0
704306.0,0.373169,-0.815674,-0.426147,0.549316,8.728027,-26.733397,-1.0,-45.0,3.0
704338.0,0.288086,-0.954224,-0.341431,14.160155,1.037598,-24.780272,-1.0,-45.0,3.0
704369.0,0.160034,-0.956787,-0.407837,1.159668,21.362303,-29.602049,-1.0,-45.0,3.0
704402.0,0.278809,-0.905151,-0.353271,-8.544922,30.029295,-17.822266,-3.0,-44.0,2.0
704433.0,0.219238,-0.976807,-0.34729,-3.417969,17.272949,-16.174316,-3.0,-44.0,2.0
704464.0,0.108032,-0.950073,-0.336426,-6.103515,22.705076,-3.90625,-3.0,-44.0,2.0
704496.0,0.244141,-0.908081,-0.36377,-9.399414,32.836914,6.16455,-3.0,-44.0,2.0
704530.0,0.205811,-0.883057,-0.375366,-6.408691,24.902342,2.624511,-3.0,-44.0,2.0
704561.0,0.230713,-0.909058,-0.362549,-5.493164,24.658201,5.92041,-3.0,-44.0,2.0
704593.0,0.264893,-0.889404,-0.391235,-5.310058,21.667479,-1.708984,-3.0,-44.0,0.0
704624.0,0.169434,-0.933594,-0.362671,-4.821777,16.662598,2.258301,-3.0,-44.0,0.0
704655.0,0.218384,-0.925537,-0.351807,-8.178711,25.268553,0.610352,-3.0,-44.0,0.0
704688.0,0.223633,-0.920044,-0.366211,-8.605957,21.911619,-5.004883,-3.0,-44.0,0.0
704719.0,0.274048,-0.901611,-0.362915,-6.16455,14.404296,-7.446289,-3.0,-44.0,0.0
704750.0,0.123535,-0.932739,-0.360107,-5.065917,10.0708,-7.202148,-3.0,-44.0,0.0
704782.0,0.231201,-0.918457,-0.356201,-8.544922,27.587889,-7.324218,-4.0,-42.0,0.0
704815.0,0.172485,-0.946533,-0.365234,-7.93457,20.690916,-12.08496,-4.0,-42.0,0.0
704846.0,0.168823,-0.958374,-0.359253,-7.446289,24.719236,-11.96289,-4.0,-42.0,0.0
704878.0,0.158936,-0.938232,-0.379639,-11.535644,32.653809,-14.770507,-2.0,-43.0,-3.0
704911.0,0.163818,-0.989014,-0.391968,-15.319823,44.31152,-11.047362,-2.0,-43.0,-3.0
704943.0,0.095093,-1.001465,-0.374268,-18.127441,59.265133,-5.554199,-2.0,-43.0,-3.0
704978.0,0.200562,-1.080811,-0.384277,-30.273436,87.158195,-17.63916,-5.0,-43.0,-8.0
705009.0,0.316528,-1.043579,-0.496094,-32.348633,98.144524,-40.52734,-5.0,-43.0,-8.0
705042.0,-0.063843,-1.213501,-0.317871,-23.315428,120.422356,-46.32568,-5.0,-43.0,-8.0
705074.0,0.210083,-1.413086,-0.239624,-28.442381,167.724594,-83.007805,-7.0,-37.0,-16.0
705105.0,0.122314,-1.465088,-0.158691,-32.897949,229.675278,-130.554199,-7.0,-37.0,-16.0
705136.0,0.241821,-1.172852,-0.263428,-34.606934,236.45018,-105.773918,-7.0,-37.0,-16.0
705169.0,-0.098755,-0.665283,-0.424805,13.000487,143.554687,-98.510735,-14.0,-26.0,-23.0
705201.0,-0.550415,-0.712646,-0.549194,59.631344,92.77343,-69.091797,-14.0,-26.0,-23.0
705232.0,0.001831,-0.432007,-0.273682,55.358883,142.028809,-20.568846,-14.0,-26.0,-23.0
705264.0,0.332153,-0.22522,-0.041382,57.312008,179.87059,69.763184,-10.0,-17.0,-29.0
705295.0,0.263916,-0.646362,0.326416,31.249998,282.104492,150.756836,-10.0,-17.0,-29.0
705326.0,0.413574,-0.672363,0.492798,16.235352,248.16893,161.010727,-10.0,-17.0,-29.0
705359.0,0.49707,-0.798828,0.308594,53.466793,180.175766,187.377914,-4.0,-11.0,-35.0
705390.0,0.293945,-1.128784,0.223999,57.189938,142.76123,214.233383,-4.0,-11.0,-35.0
705421.0,0.271606,-1.287964,0.202393,57.495113,134.216309,226.74559,-4.0,-11.0,-35.0
705452.0,0.332642,-1.29895,0.192993,58.349606,92.407219,210.632309,6.0,-10.0,-39.0
705483.0,0.159424,-1.448975,0.103271,53.649899,13.427733,197.204575,6.0,-10.0,-39.0
705514.0,0.067993,-1.556519,0.036621,17.272949,34.790039,181.213364,6.0,-10.0,-39.0
705546.0,0.024292,-1.304321,-0.079956,-11.352538,38.574219,156.982422,6.0,-10.0,-39.0
705578.0,0.048462,-1.213867,-0.242554,-8.911133,38.574219,117.431633,10.0,-11.0,-40.0
705609.0,-0.319824,-1.110474,-0.226196,-16.418457,44.921871,72.998047,10.0,-11.0,-40.0
705640.0,-0.143921,-1.002197,-0.218628,-27.099607,59.570309,18.981934,10.0,-11.0,-40.0
705673.0,-0.066895,-0.983521,-0.297607,-33.203125,31.616209,-43.518063,11.0,-6.0,-35.0
705705.0,0.535278,-0.769897,-0.69397,-13.000487,54.992672,-56.640621,11.0,-6.0,-35.0
705736.0,1.842773,-0.672729,-0.116699,3.662109,111.389153,17.822266,11.0,-6.0,-35.0
705769.0,-0.546997,-1.405762,-0.279907,41.015621,-105.346672,-75.073242,11.0,-6.0,-38.0
705800.0,0.44043,-0.889648,-0.279419,9.155273,-18.737793,-69.641113,11.0,-6.0,-38.0
705831.0,-0.035889,-1.062988,-0.146606,21.728514,18.920898,-42.846676,11.0,-6.0,-38.0
705863.0,0.282837,-0.884766,-0.418457,5.554199,45.837399,-23.193357,13.0,-2.0,-39.0
705894.0,0.334473,-0.890259,-0.347534,-7.202148,58.837887,-15.197753,13.0,-2.0,-39.0
705926.0,0.374512,-0.894897,-0.274536,8.544922,40.954586,-4.577637,13.0,-2.0,-39.0
705960.0,0.339111,-0.858521,-0.346802,10.009766,6.408691,-15.624999,13.0,-2.0,-41.0
705992.0,0.328857,-0.913818,-0.382935,9.277344,4.821777,-10.498046,13.0,-2.0,-41.0
706023.0,0.317017,-0.857544,-0.410889,-1.770019,20.812986,-10.925292,13.0,-2.0,-41.0
706056.0,0.20459,-0.967529,-0.296387,-7.690429,20.996092,-11.230468,13.0,0.0,-39.0
706087.0,0.359253,-0.878906,-0.312134,-6.713867,17.456055,-19.165039,13.0,0.0,-39.0
706118.0,0.257813,-0.927246,-0.348511,1.037598,6.713867,-12.756347,13.0,0.0,-39.0
706150.0,0.23999,-0.9104,-0.338135,-3.234863,11.352538,-18.920898,12.0,-1.0,-37.0
706182.0,0.2229,-0.932861,-0.335205,-0.671387,10.253905,-14.22119,12.0,-1.0,-37.0
706213.0,0.230225,-0.930176,-0.304443,-1.464844,12.573241,-21.484373,12.0,-1.0,-37.0
706245.0,0.156006,-0.981201,-0.290527,-2.319336,15.86914,-28.015135,14.0,-1.0,-37.0
706277.0,0.186279,-0.929199,-0.358398,-5.371093,18.859863,-36.621094,14.0,-1.0,-37.0
706308.0,0.22876,-0.978271,-0.359253,-9.399414,23.010252,-40.588375,14.0,-1.0,-37.0
706340.0,0.19812,-0.981812,-0.331665,-5.859375,15.441894,-36.132812,12.0,1.0,-46.0
706371.0,0.119141,-1.043335,-0.307251,-7.507324,11.657714,-50.781246,12.0,1.0,-46.0
706401.0,0.175659,-1.072021,-0.303955,0.061035,8.117676,-34.118652,12.0,1.0,-46.0
706432.0,0.109253,-1.068726,-0.303467,-5.187988,11.291503,-36.743164,12.0,1.0,-46.0
706465.0,0.144287,-1.123047,-0.340454,-8.972168,3.662109,-49.194332,12.0,0.0,-41.0
706496.0,0.150635,-1.149536,-0.417725,-16.601562,14.343261,-76.843262,12.0,0.0,-41.0
706527.0,0.234375,-1.140625,-0.414795,-21.240232,43.579098,-93.322746,12.0,0.0,-41.0
706559.0,0.151367,-1.232666,-0.260864,-27.099607,71.838379,-119.567863,13.0,4.0,-37.0
706591.0,0.266968,-1.343506,-0.276489,-54.687496,134.82666,-163.024887,13.0,4.0,-37.0
706622.0,0.622437,-1.065308,-0.302124,-70.678711,157.714844,-159.362793,13.0,4.0,-37.0
706654.0,0.250854,-0.469116,-0.181519,-31.738279,70.373535,-107.238762,13.0,11.0,-32.0
706686.0,-1.21582,-1.057495,-0.394653,3.234863,18.432617,-54.809566,13.0,11.0,-32.0
706717.0,-0.179932,-0.874512,-0.574097,-13.97705,65.979004,-84.045403,13.0,11.0,-32.0
706749.0,-0.432495,-0.47876,-0.135132,2.685547,79.406738,-52.917477,15.0,16.0,-34.0
706781.0,0.75293,-0.195679,0.070679,-7.629394,65.490723,95.031731,15.0,16.0,-34.0
706812.0,0.761475,-0.441406,0.20459,40.283199,-0.915527,167.053207,15.0,16.0,-34.0
706844.0,0.405273,-0.847656,0.056274,29.541014,-86.486809,145.935059,16.0,17.0,-33.0
706876.0,0.156616,-1.008545,0.119629,29.052732,6.591796,230.712875,16.0,17.0,-33.0
706907.0,0.352417,-1.331787,0.113892,34.545898,18.066406,247.802719,16.0,17.0,-33.0
706940.0,0.292236,-1.395996,0.092041,40.771481,-17.39502,246.520981,7.0,21.0,-32.0
706972.0,0.167725,-1.580811,-0.083984,55.541988,-108.5205,223.449692,7.0,21.0,-32.0
707003.0,-0.00293,-1.576294,-0.240234,39.916992,-132.446289,211.791977,7.0,21.0,-32.0
707036.0,-0.340088,-1.643188,-0.33606,16.296387,-127.136223,175.415024,-1.0,9.0,-37.0
707067.0,-0.539551,-1.227417,-0.462769,-12.817382,-104.797356,124.511711,-1.0,9.0,-37.0
707098.0,-0.583496,-1.134644,-0.555298,-7.202148,-20.019531,78.735352,-1.0,9.0,-37.0
707130.0,-0.450317,-1.034546,-0.405762,-1.831055,39.306641,25.207518,-2.0,4.0,-35.0
707161.0,-0.087158,-0.996338,-0.265747,8.483887,-21.972654,-69.030762,-2.0,4.0,-35.0
707192.0,0.94043,-0.900757,-0.339111,29.907225,-49.316402,-79.101562,-2.0,4.0,-35.0
707224.0,1.199341,-1.0,0.174316,28.808592,34.851074,-21.728514,-2.0,4.0,-33.0
707256.0,0.113892,-0.999023,-0.400757,56.762691,-117.736809,-116.21093,-2.0,4.0,-33.0
707289.0,0.307007,-0.904297,-0.310181,44.55566,-11.169433,-56.701656,-2.0,4.0,-33.0
707321.0,0.244141,-0.945435,-0.246094,49.865719,-65.185547,-50.048824,2.0,2.0,-41.0
707352.0,-0.093384,-1.128296,-0.223145,16.296387,45.654293,-37.902832,2.0,2.0,-41.0
707384.0,0.463745,-0.889404,-0.225342,8.605957,71.105957,-40.283199,2.0,2.0,-41.0
707417.0,0.356689,-0.979614,-0.280762,21.850584,31.433104,-34.484863,4.0,4.0,-40.0
707448.0,0.295166,-0.899414,-0.300293,18.188477,7.202148,-29.052732,4.0,4.0,-40.0
707479.0,0.241821,-0.963623,-0.317261,5.92041,18.432617,-31.433104,4.0,4.0,-40.0
707510.0,0.21167,-0.918701,-0.292236,-1.586914,32.043457,-24.780272,4.0,4.0,-40.0
707542.0,0.302979,-0.911743,-0.292725,0.732422,23.254393,-18.127441,3.0,6.0,-35.0
707573.0,0.234741,-0.928955,-0.266602,8.544922,9.094238,-21.057127,3.0,6.0,-35.0
707604.0,0.216064,-0.956421,-0.290771,11.596679,6.591796,-17.883301,3.0,6.0,-35.0
707636.0,0.182251,-0.930664,-0.324341,10.681151,5.737304,-18.493652,7.0,5.0,-37.0
707667.0,0.178223,-0.972168,-0.300903,6.347656,13.488769,-16.113281,7.0,5.0,-37.0
707698.0,0.161621,-0.959839,-0.294556,5.676269,18.310547,-10.0708,7.0,5.0,-37.0
707730.0,0.216553,-0.947998,-0.324951,5.310058,18.737793,-17.76123,5.0,7.0,-41.0
707762.0,0.17627,-0.960937,-0.34082,2.197266,21.484373,-15.686034,5.0,7.0,-41.0
707793.0,0.185791,-0.966187,-0.320557,-1.037598,24.597166,-20.507811,5.0,7.0,-41.0
707825.0,0.198242,-0.969238,-0.341675,-0.610352,16.967773,-27.343748,6.0,10.0,-39.0
707856.0,0.140259,-1.0,-0.36499,-4.089355,14.09912,-26.18408,6.0,10.0,-39.0
707887.0,0.15564,-1.005493,-0.362305,-11.535644,20.812986,-28.503416,6.0,10.0,-39.0
707919.0,0.112671,-1.025757,-0.346191,-18.737793,32.470703,-34.545898,5.0,11.0,-38.0
707950.0,0.150024,-1.078247,-0.348022,-24.963377,36.621094,-45.898434,5.0,11.0,-38.0
707981.0,0.181519,-1.145508,-0.389404,-26.916502,40.771481,-66.52832,5.0,11.0,-38.0
708013.0,0.092773,-1.231323,-0.266602,-27.282713,60.485836,-76.416016,5.0,13.0,-33.0
708046.0,0.012939,-1.160645,-0.247803,-31.372068,78.918457,-98.022453,5.0,13.0,-33.0
708079.0,0.052124,-1.13562,-0.253296,-36.987305,125.061028,-98.327629,5.0,13.0,-33.0
708111.0,0.218628,-1.159424,-0.446045,-39.855957,158.691406,-113.403313,10.0,19.0,-31.0
708142.0,0.256348,-0.602173,-0.459839,-18.676758,158.02002,-97.045891,10.0,19.0,-31.0
708173.0,-0.199341,-0.548584,-0.329346,16.540527,150.268555,-70.922852,10.0,19.0,-31.0
708205.0,-0.609497,-0.691284,-0.358154,38.452148,195.861801,-2.807617,11.0,27.0,-19.0
708236.0,0.830566,-0.189697,-0.209473,9.277344,267.089844,89.233391,11.0,27.0,-19.0
708267.0,0.54248,-0.706909,0.417236,57.556149,187.988266,158.325195,11.0,27.0,-19.0
708304.0,0.155518,-0.86084,0.175293,77.148437,109.619133,145.446777,0.0,32.0,-7.0
708337.0,0.384766,-1.065796,0.166016,88.74511,117.248528,203.06395,0.0,32.0,-7.0
708368.0,0.245605,-1.303345,0.089111,91.796867,79.650879,192.932114,0.0,32.0,-7.0
708400.0,0.136353,-1.305176,0.124023,98.205559,65.673828,190.673813,-8.0,28.0,-7.0
708432.0,0.296509,-1.339478,0.187744,79.528809,43.395992,183.227524,-8.0,28.0,-7.0
708463.0,0.206299,-1.477173,0.142822,56.640621,21.545408,175.84227,-8.0,28.0,-7.0
708495.0,0.127075,-1.349243,0.023926,23.010252,15.075683,155.517578,-8.0,28.0,-7.0
708528.0,-0.073486,-1.245117,-0.13562,16.540527,3.479004,115.966789,-14.0,23.0,-11.0
708559.0,-0.178101,-1.173096,-0.112183,3.051758,15.502929,71.594238,-14.0,23.0,-11.0
708590.0,-0.206421,-1.061035,-0.125732,-13.916015,9.155273,14.404296,-14.0,23.0,-11.0
708622.0,-0.149292,-1.025635,-0.302734,-21.972654,16.662598,-41.870113,-16.0,21.0,-7.0
708654.0,0.879028,-0.795044,-0.575439,-19.165039,53.955074,-55.053707,-16.0,21.0,-7.0
708686.0,1.439819,-0.610718,-0.292969,1.953125,34.790039,-10.986327,-16.0,21.0,-7.0
708718.0,-0.30127,-1.135254,-0.302002,45.471188,-144.226074,-78.796387,-15.0,23.0,-7.0
708751.0,0.096436,-0.96814,-0.267456,10.375976,-6.591796,-40.161129,-15.0,23.0,-7.0
708783.0,0.328735,-0.95105,-0.299438,16.906738,-0.061035,-46.997066,-15.0,23.0,-7.0
708817.0,0.248169,-0.849121,-0.393677,8.117676,27.099607,-20.38574,-11.0,25.0,-14.0
708848.0,0.382446,-0.883301,-0.360962,1.464844,33.325195,-22.27783,-11.0,25.0,-14.0
708879.0,0.235107,-0.966309,-0.318604,-2.13623,43.151852,-20.446775,-11.0,25.0,-14.0
708912.0,0.392334,-0.88916,-0.350952,-1.647949,42.907711,-20.019531,-10.0,25.0,-8.0
708943.0,0.264771,-0.937378,-0.370972,-5.859375,29.113768,-21.240232,-10.0,25.0,-8.0
708976.0,0.20752,-0.920166,-0.35083,-10.986327,23.559568,-15.136718,-10.0,25.0,-8.0
709009.0,0.287842,-0.901245,-0.331543,-10.986327,19.775391,-14.22119,-10.0,28.0,-3.0
709043.0,0.240845,-0.898926,-0.343018,-5.798339,6.225585,-15.197753,-10.0,28.0,-3.0
709074.0,0.184814,-0.93042,-0.323486,-3.295898,2.01416,-10.375976,-10.0,28.0,-3.0
709106.0,0.169922,-0.951538,-0.306274,-3.295898,10.253905,-0.976562,-8.0,26.0,-2.0
709138.0,0.202881,-0.942261,-0.315308,-1.098633,17.883301,-1.464844,-8.0,26.0,-2.0
709170.0,0.239624,-0.905518,-0.363525,-0.488281,19.958496,-5.737304,-8.0,26.0,-2.0
709202.0,0.197388,-0.936768,-0.348877,-3.173828,11.230468,-4.455566,-11.0,29.0,0.0
709234.0,0.227173,-0.925903,-0.350708,-6.225585,11.535644,-5.676269,-11.0,29.0,0.0
709265.0,0.24353,-0.916138,-0.362183,-7.324218,1.037598,-8.728027,-11.0,29.0,0.0
709297.0,0.202515,-0.898926,-0.345947,-6.958007,-10.437011,-10.925292,-10.0,29.0,-1.0
709328.0,0.162964,-0.961182,-0.306763,-5.554199,-7.8125,-8.117676,-10.0,29.0,-1.0
709360.0,0.205078,-0.940674,-0.310303,-1.281738,-10.31494,-6.103515,-10.0,29.0,-1.0
709394.0,0.192017,-0.947021,-0.321777,1.098633,-2.990722,-3.662109,-9.0,27.0,-3.0
709427.0,0.20752,-0.929565,-0.344116,-4.089355,7.263183,-4.821777,-9.0,27.0,-3.0
709458.0,0.203735,-0.93689,-0.355225,-9.094238,11.108397,-7.446289,-9.0,27.0,-3.0
709491.0,0.213135,-0.942017,-0.349121,-11.657714,13.305663,-10.31494,-8.0,29.0,-6.0
709523.0,0.175781,-0.946045,-0.333984,-16.479492,16.967773,-11.901855,-8.0,29.0,-6.0
709554.0,0.135986,-1.023193,-0.320068,-22.644041,24.04785,-9.216309,-8.0,29.0,-6.0
709587.0,0.189209,-1.001343,-0.350098,-35.522461,32.287598,-12.939452,-8.0,29.0,0.0
709618.0,0.185303,-0.953735,-0.307739,-40.588375,45.593258,-9.277344,-8.0,29.0,0.0
709649.0,0.218262,-1.013184,-0.312378,-46.32568,52.978512,-16.296387,-8.0,29.0,0.0
709683.0,0.095215,-1.041138,-0.271729,-46.203609,66.040039,-27.832029,-6.0,29.0,3.0
709715.0,0.133911,-1.167969,-0.310059,-43.945309,114.31884,-49.621578,-6.0,29.0,3.0
709746.0,0.122192,-1.255859,-0.304443,-44.006344,161.743149,-75.500488,-6.0,29.0,3.0
709778.0,0.166992,-1.358765,-0.338013,-28.07617,220.275864,-98.999016,-3.0,32.0,14.0
709809.0,0.271729,-1.134399,-0.30481,-31.188963,236.32811,-107.788078,-3.0,32.0,14.0
709840.0,-0.071655,-0.689819,-0.518921,6.713867,198.669418,-79.589844,-3.0,32.0,14.0
709871.0,-0.130615,-0.783813,-0.32605,42.114254,206.726059,-30.700682,-3.0,32.0,14.0
709905.0,0.179687,-0.909668,0.382568,-25.878904,349.426239,59.570309,0.0,21.0,20.0
709936.0,0.463745,-0.684937,0.648926,-23.071287,255.249008,38.269043,0.0,21.0,20.0
709967.0,0.330322,-0.627563,0.558716,-2.01416,152.22168,67.504883,0.0,21.0,20.0
710000.0,0.345703,-0.745361,0.418701,11.657714,83.618156,93.811028,-3.0,9.0,31.0
710031.0,0.25415,-0.811768,0.346558,13.85498,32.836914,111.816399,-3.0,9.0,31.0
710062.0,0.286987,-0.918091,0.308228,12.634276,11.047362,133.972168,-3.0,9.0,31.0
710094.0,0.246948,-1.029175,0.222412,15.930175,-56.518551,147.460937,-5.0,5.0,30.0
710126.0,0.110962,-1.1698,0.002441,13.732909,-57.434078,152.160645,-5.0,5.0,30.0
710157.0,0.123169,-1.196045,-0.112793,2.258301,-24.475096,157.653809,-5.0,5.0,30.0
710189.0,0.182739,-1.245728,-0.166138,8.728027,-9.399414,158.569336,-9.0,4.0,29.0
710221.0,0.026489,-1.2323,-0.164917,3.967285,-12.08496,135.864258,-9.0,4.0,29.0
710252.0,-0.005493,-1.103149,-0.169556,-11.596679,28.930662,102.60009,-9.0,4.0,29.0
710283.0,-0.002319,-0.984375,-0.16626,-16.723633,62.561031,78.613281,-8.0,0.0,29.0
710314.0,0.081299,-0.927002,-0.137085,-14.22119,82.458488,47.607418,-8.0,0.0,29.0
710345.0,0.153809,-0.891602,-0.09729,-5.187988,34.912109,-5.065917,-8.0,0.0,29.0
710377.0,0.209717,-0.858154,-0.161499,11.474608,-5.065917,-45.043941,-10.0,-3.0,29.0
710410.0,0.132324,-0.920044,-0.20166,24.475096,-21.606443,-75.317383,-10.0,-3.0,29.0
710442.0,2.678711,-1.058228,0.509644,-17.883301,88.562004,-2.807617,-10.0,-3.0,29.0
710477.0,-0.40271,-1.007446,-0.069214,53.833004,30.517576,-46.264645,-10.0,-4.0,31.0
710509.0,1.044067,-1.010864,-0.32373,31.127928,-18.432617,-122.00927,-10.0,-4.0,31.0
710542.0,0.000366,-0.85498,-0.180664,66.833496,-28.442381,-59.93652,-10.0,-4.0,31.0
710574.0,0.296387,-1.001953,-0.283203,41.992184,-50.23193,-45.227047,-10.0,0.0,30.0
710605.0,-0.039917,-1.051758,-0.132568,30.456541,28.686522,-31.799314,-10.0,0.0,30.0
710636.0,0.388794,-0.908203,-0.205933,24.536131,36.010742,-25.085447,-10.0,0.0,30.0
710667.0,0.31897,-0.985107,-0.239624,36.743164,7.995605,-13.366698,-15.0,-1.0,27.0
710698.0,0.290527,-0.933838,-0.25415,33.325195,-8.056641,-11.230468,-15.0,-1.0,27.0
710730.0,0.258545,-0.984253,-0.276123,27.282713,-11.596679,-15.319823,-15.0,-1.0,27.0
710762.0,0.087036,-0.95813,-0.268799,6.408691,23.498533,-8.117676,-15.0,0.0,27.0
710793.0,0.311523,-0.967285,-0.239868,2.685547,37.04834,-4.699707,-15.0,0.0,27.0
710823.0,0.337036,-0.926392,-0.251099,10.31494,11.596679,-10.253905,-15.0,0.0,27.0
710858.0,0.286987,-0.973022,-0.276489,11.230468,3.479004,-19.53125,-12.0,0.0,24.0
710890.0,0.211426,-0.952026,-0.280518,10.498046,-2.197266,7.385253,-12.0,0.0,24.0
710920.0,0.171387,-0.942017,-0.244629,3.173828,19.40918,-2.990722,-12.0,0.0,24.0
710951.0,0.322754,-0.914551,-0.273804,7.690429,19.470215,-12.145995,-12.0,0.0,24.0
710985.0,0.259399,-0.932983,-0.304443,6.225585,4.211426,-42.968746,-15.0,-1.0,29.0
711017.0,0.171631,-0.968018,-0.294922,6.04248,4.699707,-19.40918,-15.0,-1.0,29.0
711048.0,0.162964,-0.94458,-0.304199,0.854492,16.784668,-24.902342,-15.0,-1.0,29.0
711080.0,0.173706,-0.960571,-0.26709,3.479004,28.686522,-12.756347,-15.0,0.0,31.0
711111.0,0.184937,-0.961914,-0.310425,5.798339,23.803709,-18.371582,-15.0,0.0,31.0
711142.0,0.168091,-0.935547,-0.309937,2.990722,21.301268,-30.395506,-15.0,0.0,31.0
711174.0,0.160645,-1.018066,-0.3396,2.441406,26.733397,-35.888672,-17.0,0.0,27.0
711205.0,0.099976,-0.975342,-0.364868,-6.896972,30.639647,-28.686522,-17.0,0.0,27.0
711237.0,0.12146,-1.093994,-0.332397,-10.803222,39.733887,-18.981934,-17.0,0.0,27.0
711269.0,0.179199,-1.085327,-0.367432,-19.775391,45.166012,-24.353025,-14.0,0.0,25.0
711300.0,0.210449,-1.080933,-0.328491,-20.019531,49.682613,-55.664059,-14.0,0.0,25.0
711331.0,0.109619,-1.326416,-0.28186,-20.324705,63.84277,-84.83886,-14.0,0.0,25.0
711363.0,0.258545,-1.542358,-0.236572,-29.174803,102.72216,-132.507324,-14.0,0.0,29.0
711396.0,0.440674,-1.689331,-0.244873,-37.109375,143.615723,-187.43895,-14.0,0.0,29.0
711427.0,0.781006,-1.137207,-0.515747,-49.743649,184.387192,-188.171371,-14.0,0.0,29.0
711459.0,0.089111,-0.471069,-0.499756,-2.01416,83.06884,-133.056641,-12.0,-2.0,34.0
711490.0,-0.785156,-0.903931,-0.478394,36.315918,39.611816,-96.313469,-12.0,-2.0,34.0
711522.0,-0.192627,-0.802734,-0.361694,22.766111,93.444817,-46.936031,-12.0,-2.0,34.0
711554.0,-0.240234,-0.267822,-0.084106,11.291503,99.487297,9.277344,-13.0,-2.0,25.0
711586.0,0.349121,-0.497559,0.221313,31.372068,117.858879,120.300285,-13.0,-2.0,25.0
711617.0,0.200562,-0.616821,0.278076,27.648924,26.30615,93.505852,-13.0,-2.0,25.0
711649.0,0.172729,-0.538696,0.175293,39.916992,-11.352538,123.291008,-14.0,-11.0,28.0
711680.0,0.261719,-0.762573,0.189087,34.973145,-15.136718,194.702133,-14.0,-11.0,28.0
711712.0,0.157837,-0.896729,0.1521,32.836914,-32.836914,212.463364,-14.0,-11.0,28.0
711744.0,0.109253,-1.140259,0.070679,28.503416,-45.410152,230.285629,-13.0,-16.0,27.0
711775.0,0.099487,-1.41626,-0.051025,28.07617,-64.63623,231.201157,-13.0,-16.0,27.0
711806.0,0.054321,-1.471558,-0.11731,18.432617,-83.129875,221.069321,-13.0,-16.0,27.0
711839.0,0.003662,-1.490356,-0.230713,1.220703,-82.580559,204.956039,-9.0,-20.0,33.0
711870.0,-0.100708,-1.500488,-0.420898,-5.798339,-75.683594,174.743637,-9.0,-20.0,33.0
711901.0,-0.233887,-1.356323,-0.460449,-6.286621,-54.809566,125.854485,-9.0,-20.0,33.0
711932.0,-0.45752,-1.148071,-0.36145,-9.094238,14.587401,78.796387,-9.0,-20.0,33.0
711964.0,-0.218994,-1.135742,-0.19397,-10.925292,48.583981,14.404296,-5.0,-21.0,31.0
711996.0,-0.104492,-1.065552,-0.284302,-15.380858,7.446289,-53.649899,-5.0,-21.0,31.0
712027.0,1.073853,-0.934692,-0.58374,-6.347656,-7.873535,-97.228996,-5.0,-21.0,31.0
712059.0,1.494873,-0.72229,0.098511,-3.051758,142.76123,3.601074,-7.0,-24.0,29.0
712090.0,-0.282715,-0.934326,-0.443359,48.767086,-98.388664,-105.590813,-7.0,-24.0,29.0
712123.0,0.083618,-0.966797,-0.216797,42.66357,-60.18066,-81.481926,-7.0,-24.0,29.0
712155.0,0.472412,-0.715942,-0.352173,46.32568,-41.503902,-72.265625,-11.0,-18.0,29.0
712188.0,0.029175,-1.07312,-0.218628,29.357908,-1.89209,-49.560543,-11.0,-18.0,29.0
712219.0,0.247925,-1.070923,-0.291016,18.188477,31.555174,-54.321285,-11.0,-18.0,29.0
712252.0,0.336548,-0.922363,-0.265625,12.08496,24.658201,-47.607418,-14.0,-18.0,27.0
712284.0,0.337402,-0.929687,-0.298462,11.596679,2.319336,-34.301758,-14.0,-18.0,27.0
712315.0,0.262207,-0.948853,-0.278564,12.329101,-8.850098,-33.630371,-14.0,-18.0,27.0
712347.0,0.182861,-0.92981,-0.313477,6.652832,3.601074,-29.235838,-17.0,-18.0,29.0
712379.0,0.257446,-0.929932,-0.286377,1.464844,24.719236,-20.1416,-17.0,-18.0,29.0
712413.0,0.234009,-0.936646,-0.272339,3.051758,22.827147,-19.958496,-17.0,-18.0,29.0
712446.0,0.249878,-0.945068,-0.298584,6.04248,23.925779,-21.057127,-19.0,-16.0,26.0
712477.0,0.231079,-0.92688,-0.327271,5.615234,15.258788,-27.099607,-19.0,-16.0,26.0
712508.0,0.196167,-0.943115,-0.312012,8.056641,13.916015,-4.760742,-19.0,-16.0,26.0
712540.0,0.151855,-0.949219,-0.289917,4.699707,18.493652,-15.258788,-18.0,-17.0,25.0
712571.0,0.187256,-0.948242,-0.296021,5.798339,18.371582,-14.22119,-18.0,-17.0,25.0
712603.0,0.194458,-0.944946,-0.348022,4.943848,15.686034,-23.742674,-18.0,-17.0,25.0
712637.0,0.120361,-0.983643,-0.317993,4.394531,22.27783,-10.19287,-19.0,-15.0,27.0
712668.0,0.15979,-0.969727,-0.329834,2.13623,24.16992,-12.08496,-19.0,-15.0,27.0
712699.0,0.182617,-0.971924,-0.347534,1.037598,16.845703,-16.723633,-19.0,-15.0,27.0
712732.0,0.166382,-0.99353,-0.373901,-0.061035,15.014647,-15.930175,-19.0,-16.0,28.0
712763.0,0.117798,-1.077026,-0.343506,-8.544922,32.531738,-14.770507,-19.0,-16.0,28.0
712794.0,0.272949,-1.137329,-0.390991,-22.766111,39.794922,-32.409668,-19.0,-16.0,28.0
712826.0,0.182617,-1.14978,-0.437622,-22.27783,41.809078,-54.321285,-21.0,-17.0,24.0
712858.0,0.151611,-1.161011,-0.329834,-33.26416,86.97509,-75.317383,-21.0,-17.0,24.0
712891.0,0.084595,-1.287476,-0.263794,-39.428711,116.699211,-111.206047,-21.0,-17.0,24.0
712924.0,0.251465,-1.294434,-0.355347,-50.109859,181.152328,-148.376465,-20.0,-19.0,21.0
712956.0,0.242187,-0.97998,-0.584351,-29.418943,215.637192,-139.648437,-20.0,-19.0,21.0
712987.0,0.156616,-0.708618,-0.522827,17.944336,177.368149,-88.500969,-20.0,-19.0,21.0
713019.0,-0.701172,-0.857178,-0.370483,51.330563,149.902344,-97.778313,-23.0,-20.0,17.0
713050.0,-0.188965,-0.696533,-0.38147,63.354488,178.039536,-32.226562,-23.0,-20.0,17.0
713081.0,0.453613,-0.227539,0.178223,53.039547,234.252914,85.510246,-23.0,-20.0,17.0
713112.0,0.525391,-0.591919,0.581177,53.527828,241.821274,136.352539,-23.0,-20.0,17.0
713144.0,0.375488,-0.657715,0.366211,57.312008,151.916504,121.459953,-25.0,-29.0,7.0
713175.0,0.386963,-0.821899,0.32373,82.702629,99.609367,191.650375,-25.0,-29.0,7.0
713206.0,0.271484,-1.077148,0.25354,80.93261,88.134758,224.548325,-25.0,-29.0,7.0
713238.0,0.143066,-1.324707,0.238647,72.387695,92.163078,225.097641,-13.0,-41.0,-3.0
713269.0,0.180664,-1.35022,0.261353,64.27002,57.800289,212.951645,-13.0,-41.0,-3.0
713300.0,0.141113,-1.4552,0.067627,57.189938,17.150879,209.10643,-13.0,-41.0,-3.0
713332.0,-0.075806,-1.580688,-0.05835,41.687008,19.165039,195.25145,3.0,-42.0,-3.0
713363.0,-0.269409,-1.388672,-0.088013,9.033203,25.756834,162.23143,3.0,-42.0,-3.0
713395.0,-0.248047,-1.308594,-0.117554,-7.263183,35.461426,92.956535,3.0,-42.0,-3.0
713428.0,-0.420776,-1.178223,-0.130615,-20.751951,49.987789,40.466305,12.0,-44.0,-7.0
713459.0,-0.325562,-0.997681,-0.414429,-20.080564,29.418943,-27.893064,12.0,-44.0,-7.0
713492.0,1.436157,-0.982544,-0.406494,8.972168,67.016602,-43.518063,12.0,-44.0,-7.0
713525.0,0.601929,-0.705322,-0.280762,29.846189,-79.711914,-59.93652,10.0,-42.0,-7.0
713556.0,-0.284302,-1.246216,-0.206177,26.611326,-80.93261,-64.086914,10.0,-42.0,-7.0
713587.0,0.250977,-0.860107,-0.324097,17.578125,29.479979,-42.114254,10.0,-42.0,-7.0
713619.0,0.269165,-0.992432,-0.270874,18.127441,-6.774902,-36.804199,4.0,-43.0,-7.0
713650.0,0.282227,-0.906616,-0.33728,15.136718,26.489256,-20.202635,4.0,-43.0,-7.0
713682.0,0.293945,-0.961792,-0.304565,11.901855,24.536131,-23.559568,4.0,-43.0,-7.0
713715.0,0.303101,-0.927246,-0.351807,8.056641,14.404296,-26.000975,5.0,-42.0,-7.0
713747.0,0.276978,-0.916138,-0.359253,1.89209,10.620116,-21.972654,5.0,-42.0,-7.0
713778.0,0.257446,-0.922974,-0.352905,-2.624511,7.324218,-20.629881,5.0,-42.0,-7.0
713811.0,0.207642,-0.937134,-0.308594,-6.286621,17.822266,-13.732909,4.0,-42.0,-13.0
713843.0,0.300781,-0.891357,-0.317261,-6.225585,23.620604,-10.0708,4.0,-42.0,-13.0
713874.0,0.181763,-0.948975,-0.311279,-0.732422,13.366698,-9.70459,4.0,-42.0,-13.0
713906.0,0.218018,-0.924927,-0.332764,-2.868652,20.751951,-10.131835,2.0,-41.0,-10.0
713937.0,0.253662,-0.933472,-0.332031,-3.234863,15.686034,-9.460449,2.0,-41.0,-10.0
713968.0,0.227661,-0.923218,-0.335205,-2.502441,20.202635,-9.521484,2.0,-41.0,-10.0
714001.0,0.187622,-0.927612,-0.322266,-0.976562,14.404296,-9.521484,4.0,-40.0,-11.0
714033.0,0.194214,-0.940918,-0.315674,0.610352,16.418457,-16.235352,4.0,-40.0,-11.0
714064.0,0.145752,-0.958252,-0.327637,1.464844,18.127441,-10.925292,4.0,-40.0,-11.0
714096.0,0.183105,-0.966553,-0.346924,-2.319336,24.04785,-5.676269,4.0,-40.0,-11.0
714128.0,0.176147,-0.979126,-0.367554,-7.019042,28.625486,-4.760742,1.0,-42.0,-11.0
714160.0,0.239014,-0.927734,-0.380127,-11.718749,27.343748,-9.338379,1.0,-42.0,-11.0
714191.0,0.148315,-1.012329,-0.348022,-13.793944,25.878904,-9.70459,1.0,-42.0,-11.0
714223.0,0.161255,-1.102173,-0.391113,-28.320311,45.532223,-24.108885,3.0,-38.0,-17.0
714256.0,0.172241,-1.077637,-0.354858,-39.489746,69.274902,-50.720211,3.0,-38.0,-17.0
714287.0,0.192383,-1.220337,-0.349731,-33.14209,85.693352,-75.134277,3.0,-38.0,-17.0
714322.0,0.212402,-1.406616,-0.241333,-36.804199,129.638672,-116.394035,-4.0,-36.0,-13.0
714353.0,0.162231,-1.372925,-0.238403,-34.179687,175.537094,-157.958984,-4.0,-36.0,-13.0
714384.0,0.46875,-1.281982,-0.399292,-31.311033,200.561508,-145.385742,-4.0,-36.0,-13.0
714417.0,0.381226,-0.760254,-0.395264,-3.784179,133.300781,-108.39843,-11.0,-24.0,-26.0
714449.0,-0.582764,-0.703491,-0.36499,40.161129,102.905266,-73.303223,-11.0,-24.0,-26.0
714480.0,-0.40686,-0.847534,-0.378906,48.400875,106.750481,-61.828609,-11.0,-24.0,-26.0
714513.0,-0.379639,-0.581299,-0.125122,43.701168,122.13134,-6.774902,-8.0,-17.0,-32.0
714546.0,0.483398,-0.345825,0.065186,42.236324,152.770996,98.327629,-8.0,-17.0,-32.0
714578.0,0.266479,-0.793579,0.467285,46.142574,130.187988,133.300781,-8.0,-17.0,-32.0
714610.0,0.232178,-0.682739,0.270142,31.494139,65.246582,109.497063,-4.0,-14.0,-30.0
714641.0,0.308105,-0.856567,0.31604,49.499508,63.476559,175.476059,-4.0,-14.0,-30.0
714672.0,0.331665,-1.029663,0.220581,47.790524,6.652832,202.392563,-4.0,-14.0,-30.0
714704.0,0.114258,-1.211914,0.116455,42.358395,-12.08496,212.951645,7.0,-20.0,-27.0
714736.0,0.120605,-1.356079,0.019043,29.907225,-25.573729,206.176743,7.0,-20.0,-27.0
714768.0,0.150635,-1.363647,-0.098267,21.545408,-46.081539,203.18602,7.0,-20.0,-27.0
714800.0,0.120361,-1.472778,-0.21814,11.230468,-51.574703,194.457993,17.0,-18.0,-30.0
714831.0,-0.028442,-1.316772,-0.317383,-18.371582,-25.207518,169.494614,17.0,-18.0,-30.0
714862.0,-0.067017,-1.192871,-0.383911,-13.305663,6.652832,136.962891,17.0,-18.0,-30.0
714894.0,-0.149048,-1.126099,-0.327515,-7.080078,42.114254,99.121086,19.0,-14.0,-27.0
714926.0,-0.106079,-1.049683,-0.111328,-14.282226,67.504883,49.926754,19.0,-14.0,-27.0
714957.0,0.002197,-1.022827,-0.178467,-19.592285,21.362303,-16.967773,19.0,-14.0,-27.0
714990.0,-0.102295,-1.031128,-0.317261,-11.108397,-28.686522,-76.965332,19.0,-12.0,-21.0
715024.0,1.511963,-0.827026,-0.639893,7.019042,41.015621,-52.490231,19.0,-12.0,-21.0
715055.0,0.966431,-0.77832,0.167358,-5.310058,102.050774,-13.183593,19.0,-12.0,-21.0
715087.0,0.099609,-1.262573,-0.420532,49.560543,-91.369621,-87.402336,18.0,-12.0,-30.0
715118.0,0.223511,-0.842285,-0.218262,5.981445,0.671387,-67.749023,18.0,-12.0,-30.0
715151.0,0.413086,-0.901367,-0.230835,43.884274,-27.160643,-49.316402,18.0,-12.0,-30.0
715184.0,0.263794,-0.899536,-0.299316,29.907225,-10.19287,-41.748043,21.0,-13.0,-23.0
715216.0,0.24353,-0.995361,-0.271484,28.625486,-0.854492,-40.710445,21.0,-13.0,-23.0
715249.0,0.276489,-0.958984,-0.3302,17.333984,18.249512,-42.358395,21.0,-13.0,-23.0
715282.0,0.303833,-0.915405,-0.308716,8.911133,9.216309,-28.259275,20.0,-12.0,-20.0
715313.0,0.263062,-0.953735,-0.317871,3.784179,5.615234,-27.099607,20.0,-12.0,-20.0
715345.0,0.244141,-0.919312,-0.297363,-2.746582,17.211914,-22.3999,20.0,-12.0,-20.0
715378.0,0.307129,-0.931274,-0.289917,1.220703,7.446289,-17.578125,20.0,-13.0,-25.0
715412.0,0.204834,-0.934082,-0.312256,1.770019,14.038085,-21.179197,20.0,-13.0,-25.0
715443.0,0.230591,-0.942139,-0.292236,3.845215,17.39502,-3.662109,20.0,-13.0,-25.0
715475.0,0.233887,-0.924805,-0.321533,-1.037598,22.949217,-15.624999,20.0,-12.0,-24.0
715506.0,0.221802,-0.927002,-0.322876,-0.244141,27.832029,-18.676758,20.0,-12.0,-24.0
715539.0,0.16687,-0.947632,-0.2854,-2.929687,26.245115,-33.935547,20.0,-12.0,-24.0
715572.0,0.22229,-0.970825,-0.307129,1.098633,28.625486,-16.723633,20.0,-11.0,-26.0
715603.0,0.15686,-0.963745,-0.335938,-0.732422,27.832029,-24.963377,20.0,-11.0,-26.0
715634.0,0.244019,-0.939209,-0.372437,-5.92041,23.681639,-35.766602,20.0,-11.0,-26.0
715665.0,0.092651,-1.027344,-0.310059,-3.723144,14.526366,-31.555174,20.0,-11.0,-26.0
715700.0,0.123535,-1.023438,-0.345581,-5.676269,22.033689,-13.97705,19.0,-11.0,-29.0
715732.0,0.163208,-1.06604,-0.325439,-6.591796,21.789549,-9.277344,19.0,-11.0,-29.0
715764.0,0.228516,-1.226563,-0.334106,-17.150879,29.602049,-21.911619,19.0,-11.0,-29.0
715797.0,0.234985,-1.231079,-0.374146,-24.16992,32.958984,-55.175777,17.0,-10.0,-28.0
715828.0,0.278564,-1.363525,-0.353882,-34.423828,64.758301,-89.721672,17.0,-10.0,-28.0
715860.0,0.248291,-1.540039,-0.29248,-65.979004,152.282715,-161.743149,17.0,-10.0,-28.0
715893.0,0.591064,-1.580566,-0.33313,-89.904778,268.432617,-229.797348,12.0,-4.0,-25.0
715925.0,0.576294,-0.677002,-0.645142,-26.367186,152.954102,-214.7827,12.0,-4.0,-25.0
715956.0,-1.14209,-0.910156,-0.547119,47.485348,4.882812,-131.347656,12.0,-4.0,-25.0
715988.0,-0.721069,-1.195557,-0.579102,53.222652,94.543449,-138.671875,14.0,2.0,-32.0
716022.0,-0.791138,-0.685547,-0.076294,13.244628,148.681641,-63.84277,14.0,2.0,-32.0
716053.0,-0.144775,-0.463257,0.275024,33.691406,97.961418,-52.307125,14.0,2.0,-32.0
716085.0,0.113159,-0.420044,0.270752,45.715328,22.888182,-36.804199,14.0,9.0,-28.0
716116.0,0.319214,-0.114014,0.263062,41.015621,-10.375976,-3.234863,14.0,9.0,-28.0
716147.0,0.452759,-0.175049,0.297729,40.52734,-24.719236,81.787102,14.0,9.0,-28.0
716179.0,0.360107,-0.544189,0.181885,25.024412,-33.752441,171.325668,13.0,10.0,-29.0
716210.0,0.206177,-0.6521,0.103516,11.718749,-14.22119,217.407211,13.0,10.0,-29.0
716242.0,0.12793,-0.911987,-0.001099,13.488769,11.413573,254.699692,13.0,10.0,-29.0
716274.0,0.071655,-1.246216,-0.106201,23.620604,19.592285,276.306152,7.0,13.0,-34.0
716306.0,-0.005249,-1.483765,-0.190308,33.996582,27.282713,283.996582,7.0,13.0,-34.0
716337.0,0.078491,-1.590698,-0.264526,43.640133,35.15625,269.348145,7.0,13.0,-34.0
716369.0,0.120117,-1.573364,-0.268921,61.706539,-43.395992,225.769028,1.0,10.0,-32.0
716401.0,0.018799,-1.704956,-0.279785,51.330563,-98.388664,190.917953,1.0,10.0,-32.0
716432.0,-0.119751,-1.513184,-0.226196,23.681639,-81.29882,147.583008,1.0,10.0,-32.0
716464.0,-0.164673,-1.194458,-0.253662,6.835937,-49.072262,97.290031,-1.0,0.0,-35.0
716496.0,-0.185547,-1.128052,-0.24707,-0.549316,-7.629394,53.222652,-1.0,0.0,-35.0
716528.0,-0.051147,-1.062134,-0.253174,-8.605957,0.671387,-5.676269,-1.0,0.0,-35.0
716560.0,-0.063721,-0.977783,-0.28833,-5.126953,-20.874022,-52.490231,-4.0,1.0,-38.0
716592.0,0.52832,-0.864136,-0.548706,-0.671387,-9.216309,-79.284668,-4.0,1.0,-38.0
716624.0,1.75354,-0.83313,0.187622,5.493164,126.647942,14.709472,-4.0,1.0,-38.0
716657.0,-0.456299,-1.13501,-0.329224,-10.375976,27.221678,-67.932129,-2.0,4.0,-37.0
716690.0,0.713135,-1.016724,-0.383911,29.96826,-12.573241,-58.410641,-2.0,4.0,-37.0
716721.0,0.15332,-0.858887,-0.211914,28.503416,-33.02002,-69.030762,-2.0,4.0,-37.0
716754.0,0.104248,-0.970215,-0.315796,32.836914,-26.245115,-41.931149,-2.0,2.0,-35.0
716785.0,0.299683,-0.978149,-0.34375,16.601562,18.676758,-43.395992,-2.0,2.0,-35.0
716816.0,0.315552,-0.903931,-0.292114,9.216309,27.038572,-26.855467,-2.0,2.0,-35.0
716847.0,0.318848,-0.923462,-0.31189,9.521484,16.296387,-11.840819,-2.0,2.0,-35.0
716879.0,0.399658,-0.906738,-0.299072,16.479492,2.197266,-10.498046,0.0,5.0,-40.0
716910.0,0.27356,-0.89502,-0.362427,13.671874,0.366211,-9.338379,0.0,5.0,-40.0
716941.0,0.320679,-0.869629,-0.366577,1.037598,23.986814,-9.338379,0.0,5.0,-40.0
716973.0,0.286499,-0.919434,-0.321289,0.488281,23.193357,-8.483887,1.0,5.0,-39.0
717004.0,0.36499,-0.900513,-0.316528,0.366211,24.04785,-12.451171,1.0,5.0,-39.0
717035.0,0.344727,-0.925903,-0.357178,3.173828,10.437011,-29.541014,1.0,5.0,-39.0
717067.0,0.2677,-0.916138,-0.335327,6.896972,15.563964,3.295898,1.0,5.0,-37.0
717098.0,0.202148,-0.917969,-0.33313,-1.770019,18.188477,-20.507811,1.0,5.0,-37.0
717130.0,0.249268,-0.918823,-0.340454,-2.624511,28.07617,-25.268553,1.0,5.0,-37.0
717162.0,0.27832,-0.918457,-0.363281,5.065917,21.545408,-10.498046,1.0,10.0,-37.0
717193.0,0.180786,-0.943237,-0.342041,1.770019,28.869627,-9.643555,1.0,10.0,-37.0
717226.0,0.247192,-0.956299,-0.365112,-2.075195,30.517576,-19.958496,1.0,10.0,-37.0
717258.0,0.251099,-0.933105,-0.400269,-5.249023,29.907225,-16.357422,2.0,13.0,-34.0
717291.0,0.18811,-1.010376,-0.374756,-11.352538,36.193848,-16.906738,2.0,13.0,-34.0
717323.0,0.20874,-0.989624,-0.367432,-18.554687,46.203609,-26.18408,2.0,13.0,-34.0
717356.0,0.122681,-1.121826,-0.332886,-26.489256,68.17627,-43.518063,2.0,12.0,-34.0
717388.0,0.303101,-1.186279,-0.425171,-38.635254,83.19091,-84.106438,2.0,12.0,-34.0
717421.0,0.18103,-1.391113,-0.319336,-34.362793,113.525383,-110.351555,2.0,12.0,-34.0
717454.0,0.307495,-1.563721,-0.248291,-37.17041,169.189438,-152.587891,7.0,22.0,-31.0
717485.0,0.547485,-1.443726,-0.285156,-46.691891,236.877426,-155.151367,7.0,22.0,-31.0
717516.0,0.220459,-0.747192,-0.366455,-12.512206,177.124008,-174.499496,7.0,22.0,-31.0
717549.0,-0.422852,-0.937378,-0.486694,31.005857,120.483391,-150.32959,16.0,31.0,-17.0
717581.0,-0.14563,-0.413818,-0.418579,59.387203,101.623528,-44.616695,16.0,31.0,-17.0
717613.0,0.126343,0.04187,-0.211426,57.128902,116.21093,-5.92041,16.0,31.0,-17.0
717645.0,0.447388,-0.376465,0.338379,55.419918,249.023422,154.174805,12.0,31.0,-14.0
717676.0,0.399902,-0.756714,0.537842,27.099607,173.767075,147.094727,12.0,31.0,-14.0
717707.0,0.262329,-0.578125,0.312744,71.166992,96.92382,180.053696,12.0,31.0,-14.0
717739.0,0.265747,-0.882568,0.213135,76.11084,95.275871,240.173325,2.0,33.0,-2.0
717771.0,0.056274,-1.378296,0.177856,69.030762,111.938469,243.347153,2.0,33.0,-2.0
717802.0,0.101318,-1.52771,0.212769,55.786129,129.699707,248.16893,2.0,33.0,-2.0
717834.0,0.218628,-1.389648,0.21521,57.434078,61.706539,224.975571,-11.0,29.0,0.0
717865.0,-0.022461,-1.56958,0.006226,47.119137,5.798339,198.852524,-11.0,29.0,0.0
717897.0,-0.039063,-1.425293,-0.130493,4.760742,49.560543,185.180649,-11.0,29.0,0.0
717928.0,-0.027588,-1.287476,-0.205322,-2.990722,60.791012,156.311035,-11.0,29.0,0.0
717961.0,-0.220825,-1.196411,-0.220215,-14.282226,67.687988,117.736809,-19.0,21.0,-3.0
717993.0,-0.276489,-1.057861,-0.207031,-28.503416,106.201164,78.918457,-19.0,21.0,-3.0
718025.0,-0.053223,-1.026001,-0.203247,-35.03418,83.435051,-1.708984,-19.0,21.0,-3.0
718058.0,0.03894,-0.980835,-0.228271,-25.512693,23.010252,-65.856934,-21.0,20.0,1.0
718090.0,1.810669,-0.570557,-0.772583,-5.554199,-17.089844,-70.373535,-21.0,20.0,1.0
718122.0,0.558716,-0.935547,-0.077148,24.902342,61.645504,34.545898,-21.0,20.0,1.0
718154.0,-0.413208,-1.470337,-0.332397,32.470703,-113.098137,-103.271477,-19.0,22.0,1.0
718185.0,0.320557,-0.723145,-0.305054,-3.234863,37.04834,-41.503902,-19.0,22.0,1.0
718217.0,0.293213,-0.993774,-0.296509,14.587401,2.502441,-45.776363,-19.0,22.0,1.0
718249.0,0.31311,-0.793945,-0.379395,7.202148,17.76123,-34.301758,-16.0,22.0,7.0
718281.0,0.329834,-0.966064,-0.3573,7.324218,22.949217,-29.602049,-16.0,22.0,7.0
718312.0,0.327393,-0.891846,-0.353394,4.333496,23.681639,-32.531738,-16.0,22.0,7.0
718344.0,0.334961,-0.87793,-0.387451,0.976562,5.615234,-23.254393,-15.0,23.0,1.0
718376.0,0.249023,-0.940918,-0.351074,-0.061035,-2.441406,-22.705076,-15.0,23.0,1.0
718408.0,0.20105,-0.914917,-0.331299,-4.882812,13.244628,-11.840819,-15.0,23.0,1.0
718440.0,0.244629,-0.919434,-0.335327,-4.699707,18.188477,-1.831055,-14.0,23.0,1.0
718472.0,0.282471,-0.889404,-0.355347,-4.02832,15.930175,-3.356933,-14.0,23.0,1.0
718505.0,0.23584,-0.932495,-0.349121,-3.540039,22.888182,4.577637,-14.0,23.0,1.0
718537.0,0.256104,-0.897705,-0.345093,-3.112793,21.301268,2.502441,-14.0,24.0,2.0
718568.0,0.268066,-0.912109,-0.357422,-6.408691,27.343748,-11.291503,-14.0,24.0,2.0
718599.0,0.297729,-0.900879,-0.353394,-6.713867,26.977537,-16.296387,-14.0,24.0,2.0
718631.0,0.199097,-0.938843,-0.33252,-4.455566,23.254393,-16.113281,-13.0,26.0,4.0
718662.0,0.193115,-0.918457,-0.341431,-4.333496,27.770994,-15.441894,-13.0,26.0,4.0
718694.0,0.168823,-0.932983,-0.356934,-5.432128,32.287598,-23.315428,-13.0,26.0,4.0
718727.0,0.197266,-0.963501,-0.359497,-4.943848,38.085937,-16.601562,-16.0,24.0,10.0
718759.0,0.186768,-0.932495,-0.38623,-6.835937,32.043457,-15.319823,-16.0,24.0,10.0
718790.0,0.200439,-0.988281,-0.383179,-7.873535,31.494139,-13.183593,-16.0,24.0,10.0
718822.0,0.205933,-0.977417,-0.407837,-10.375976,31.738279,-9.765625,-13.0,26.0,7.0
718854.0,0.118896,-1.103394,-0.383179,-16.296387,48.034664,-10.437011,-13.0,26.0,7.0
718886.0,0.167236,-1.165771,-0.361572,-32.409668,76.171875,-18.310547,-13.0,26.0,7.0
718919.0,0.279053,-1.144653,-0.427979,-42.846676,100.524895,-43.945309,-10.0,24.0,12.0
718952.0,0.256714,-1.313843,-0.42041,-33.508301,132.080078,-109.497063,-10.0,24.0,12.0
718984.0,0.21167,-1.358643,-0.230225,-38.574219,189.514145,-158.26416,-10.0,24.0,12.0
719017.0,0.410645,-1.47229,-0.225952,-51.330563,242.492661,-163.024887,-2.0,19.0,23.0
719049.0,0.605835,-0.648437,-0.234253,-22.27783,164.794907,-144.165039,-2.0,19.0,23.0
719081.0,-0.521729,-0.472046,-0.436646,45.104977,34.790039,-83.19091,-2.0,19.0,23.0
719113.0,0.395996,-0.459229,-0.42334,23.803709,80.810539,14.770507,-3.0,17.0,29.0
719144.0,0.283569,-0.552368,0.178101,7.080078,214.660629,176.879868,-3.0,17.0,29.0
719176.0,0.276611,-0.557129,0.311523,-11.596679,154.541016,122.497551,-3.0,17.0,29.0
719209.0,0.204712,-0.768921,0.233643,32.714844,105.163567,170.532211,-6.0,5.0,27.0
719240.0,0.405396,-0.973755,0.052856,45.471188,62.622066,201.29393,-6.0,5.0,27.0
719271.0,0.185547,-1.212524,0.003418,66.101074,-4.02832,215.698227,-6.0,5.0,27.0
719303.0,0.144775,-1.336914,-0.022583,65.856934,-21.301268,209.10643,-6.0,5.0,27.0
719335.0,0.245972,-1.396484,0.068848,64.819336,-84.289543,196.899399,-12.0,0.0,30.0
719367.0,-0.02417,-1.598267,-0.034546,30.700682,-102.60009,180.664047,-12.0,0.0,30.0
719398.0,-0.055664,-1.333984,-0.316772,-11.535644,-67.932129,153.320312,-12.0,0.0,30.0
719431.0,-0.24939,-1.203491,-0.440063,7.019042,-15.930175,114.013664,-13.0,-5.0,29.0
719462.0,-0.361938,-1.141113,-0.171509,-1.403808,22.521971,60.913082,-13.0,-5.0,29.0
719495.0,-0.314697,-1.114746,-0.076294,-15.075683,2.868652,-3.601074,-13.0,-5.0,29.0
719527.0,-0.166626,-1.008423,-0.293945,-15.686034,-23.132322,-66.040039,-14.0,-6.0,29.0
719559.0,0.654419,-0.812256,-0.65625,-1.403808,-21.423338,-94.604485,-14.0,-6.0,29.0
719590.0,1.66272,-0.952515,0.103394,5.493164,96.618645,-4.699707,-14.0,-6.0,29.0
719622.0,-0.286987,-0.865234,-0.507568,56.03027,-121.337883,-98.266594,-15.0,-2.0,27.0
719653.0,0.282715,-1.157837,-0.233521,35.27832,-39.367676,-55.236813,-15.0,-2.0,27.0
719685.0,0.320923,-0.930908,-0.233643,34.057617,-0.793457,-53.283688,-15.0,-2.0,27.0
719718.0,0.117798,-0.988403,-0.249756,30.761717,0.915527,-29.602049,-16.0,-1.0,29.0
719750.0,0.343506,-0.968018,-0.295166,29.724119,21.728514,-31.127928,-16.0,-1.0,29.0
719781.0,0.262451,-0.952759,-0.299438,22.094725,21.606443,-27.587889,-16.0,-1.0,29.0
719814.0,0.2854,-0.949951,-0.339966,12.329101,26.123045,-22.27783,-17.0,1.0,25.0
719846.0,0.315186,-0.920898,-0.308105,6.774902,19.287109,-19.897461,-17.0,1.0,25.0
719877.0,0.177124,-0.958008,-0.317505,5.493164,13.183593,-16.296387,-17.0,1.0,25.0
719910.0,0.319702,-0.895996,-0.322876,-2.624511,33.203125,-12.023925,-18.0,0.0,25.0
719942.0,0.316162,-0.914185,-0.333984,-0.12207,17.51709,-15.319823,-18.0,0.0,25.0
719973.0,0.251587,-0.928589,-0.310913,-1.708984,18.432617,-25.512693,-18.0,0.0,25.0
720005.0,0.19043,-0.954224,-0.332764,5.981445,13.488769,0.854492,-17.0,0.0,27.0
720038.0,0.252319,-0.913452,-0.317139,-1.770019,24.230955,-11.596679,-17.0,0.0,27.0
720069.0,0.1604,-0.93689,-0.310059,1.708984,11.108397,-15.502929,-17.0,0.0,27.0
720103.0,0.200195,-0.943115,-0.321411,-2.258301,23.986814,-19.714355,-16.0,0.0,24.0
720137.0,0.227295,-0.948608,-0.348877,0.427246,24.902342,-17.76123,-16.0,0.0,24.0
720169.0,0.152832,-0.930054,-0.340332,-1.586914,21.972654,-11.657714,-16.0,0.0,24.0
720202.0,0.143555,-0.944702,-0.32666,-5.798339,25.817869,-29.907225,-17.0,-1.0,25.0
720234.0,0.202271,-0.981445,-0.343018,-1.342773,23.681639,-23.193357,-17.0,-1.0,25.0
720265.0,0.17041,-1.004395,-0.369141,-2.13623,17.272949,-17.272949,-17.0,-1.0,25.0
720298.0,0.19458,-1.002808,-0.345093,-1.708984,19.470215,-9.033203,-16.0,-2.0,24.0
720329.0,0.133667,-1.053589,-0.338013,-2.197266,19.287109,-1.342773,-16.0,-2.0,24.0
720360.0,0.15918,-1.083862,-0.359009,-16.113281,33.935547,-21.545408,-16.0,-2.0,24.0
720395.0,0.183594,-1.151611,-0.35083,-13.793944,29.541014,-38.574219,-16.0,-2.0,32.0
720428.0,0.231201,-1.249878,-0.360596,-32.470703,64.575195,-85.937492,-16.0,-2.0,32.0
720461.0,0.238159,-1.266602,-0.255737,-45.288082,91.918938,-135.925293,-16.0,-2.0,32.0
720493.0,0.221558,-1.366577,-0.217773,-58.471676,147.888184,-189.208969,-13.0,-1.0,31.0
720524.0,0.74292,-1.003662,-0.445679,-59.692379,181.457504,-185.54686,-13.0,-1.0,31.0
720558.0,0.173828,-0.445923,-0.310791,21.179197,26.794432,-103.332512,-13.0,-1.0,31.0
720591.0,-0.653076,-0.537598,-0.564575,10.437011,56.945797,-75.317383,-11.0,0.0,31.0
720623.0,0.581665,-0.365723,-0.02832,-6.835937,195.739731,134.460449,-11.0,0.0,31.0
720655.0,0.222778,-0.809937,0.278564,-9.399414,177.307114,154.23584,-11.0,0.0,31.0
720687.0,0.041504,-0.768066,0.079712,25.024412,79.833984,121.215813,-13.0,-14.0,26.0
720718.0,0.204712,-0.95459,-0.019897,49.377438,46.752926,168.395981,-13.0,-14.0,26.0
720749.0,0.148437,-1.07251,-0.108154,71.289062,-0.183105,179.138168,-13.0,-14.0,26.0
720782.0,-0.018555,-1.21521,-0.072754,72.631836,-1.159668,178.405746,-13.0,-22.0,35.0
720814.0,0.180908,-1.223999,0.05896,71.533203,-31.188963,170.898422,-13.0,-22.0,35.0
720846.0,0.009399,-1.392944,0.018433,62.377926,-67.993164,172.485336,-13.0,-22.0,35.0
720878.0,0.017212,-1.318726,-0.109863,13.732909,-23.498533,168.334946,-7.0,-25.0,24.0
720909.0,0.049927,-1.205444,-0.233154,10.620116,-15.380858,161.132797,-7.0,-25.0,24.0
720940.0,0.054077,-1.196411,-0.281738,9.033203,-0.305176,135.986328,-7.0,-25.0,24.0
720971.0,-0.159546,-1.198853,-0.182617,9.399414,16.845703,111.389153,-7.0,-25.0,24.0
721004.0,-0.114502,-1.047852,-0.146729,-10.253905,27.465818,67.504883,-7.0,-31.0,27.0
721035.0,-0.177734,-1.036255,-0.253174,-17.578125,20.324705,13.061522,-7.0,-31.0,27.0
721067.0,-0.13269,-1.037598,-0.21936,-18.371582,28.442381,-53.039547,-7.0,-31.0,27.0
721099.0,0.089966,-1.059326,-0.187378,-20.26367,-4.882812,-96.67968,-4.0,-29.0,26.0
721134.0,2.529541,-0.553589,-0.199097,0.183105,69.641113,-13.549804,-4.0,-29.0,26.0
721166.0,-0.443726,-0.964233,-0.349976,25.390623,-56.15234,-68.115234,-4.0,-29.0,26.0
721198.0,0.456909,-1.368774,-0.314819,36.132812,-94.116203,-93.444817,-8.0,-29.0,30.0
721230.0,0.044434,-0.697266,-0.289673,15.502929,-4.943848,-68.969727,-8.0,-29.0,30.0
721261.0,0.238159,-0.91333,-0.34314,25.756834,-29.113768,-44.616695,-8.0,-29.0,30.0
721294.0,0.196167,-0.973389,-0.293213,11.596679,23.010252,-43.090816,-13.0,-26.0,29.0
721325.0,0.32019,-0.951294,-0.329346,2.624511,39.916992,-40.954586,-13.0,-26.0,29.0
721357.0,0.313843,-0.914429,-0.322388,3.662109,16.845703,-34.912109,-13.0,-26.0,29.0
721390.0,0.273193,-0.938965,-0.326416,2.197266,8.239746,-27.465818,-14.0,-26.0,33.0
721423.0,0.210815,-0.924805,-0.367065,-2.990722,9.887695,-29.785154,-14.0,-26.0,33.0
721454.0,0.20105,-0.91687,-0.325439,-12.756347,24.841307,-22.949217,-14.0,-26.0,33.0
721486.0,0.258667,-0.933838,-0.282227,-9.216309,23.498533,-17.578125,-16.0,-26.0,27.0
721517.0,0.166382,-0.943726,-0.285522,-1.953125,19.287109,-22.827147,-16.0,-26.0,27.0
721549.0,0.250122,-0.939453,-0.30188,2.502441,11.047362,-8.728027,-16.0,-26.0,27.0
721581.0,0.15625,-0.947021,-0.306885,0.976562,11.840819,-11.169433,-15.0,-28.0,23.0
721612.0,0.134277,-0.936401,-0.312866,-0.183105,12.878417,-13.732909,-15.0,-28.0,23.0
721643.0,0.200073,-0.945923,-0.317261,-2.01416,17.822266,-20.629881,-15.0,-28.0,23.0
721675.0,0.145508,-0.951538,-0.305786,3.479004,11.108397,-5.859375,-17.0,-28.0,28.0
721707.0,0.182373,-0.958252,-0.33374,0.915527,16.418457,-7.446289,-17.0,-28.0,28.0
721739.0,0.140869,-0.947876,-0.342163,-2.380371,13.366698,-10.437011,-17.0,-28.0,28.0
721772.0,0.19873,-0.959961,-0.381226,-8.483887,15.319823,-12.329101,-16.0,-26.0,27.0
721804.0,0.168091,-0.983398,-0.371826,-10.437011,14.22119,-3.173828,-16.0,-26.0,27.0
721835.0,0.181396,-1.017212,-0.330566,-14.648437,23.986814,14.343261,-16.0,-26.0,27.0
721867.0,0.206909,-1.049683,-0.362061,-26.30615,20.690916,11.108397,-15.0,-26.0,23.0
721898.0,0.287354,-1.025024,-0.360474,-27.648924,27.160643,7.202148,-15.0,-26.0,23.0
721930.0,0.109985,-1.174683,-0.328369,-33.14209,44.128414,-24.658201,-15.0,-26.0,23.0
721962.0,0.170288,-1.340454,-0.371826,-59.326168,95.703117,-70.495605,-14.0,-31.0,24.0
721994.0,0.447998,-1.199829,-0.416992,-84.228508,168.579086,-147.949219,-14.0,-31.0,24.0
722026.0,0.276611,-1.392822,-0.429321,-68.969727,219.482407,-199.1577,-14.0,-31.0,24.0
722058.0,0.53125,-1.141235,-0.742798,-28.07617,244.26268,-201.843246,-23.0,-30.0,13.0
722090.0,-0.065796,-0.478149,-0.286011,35.522461,186.706528,-96.191399,-23.0,-30.0,13.0
722122.0,-0.417847,-0.631104,-0.244995,68.17627,173.889145,-54.26025,-23.0,-30.0,13.0
722153.0,0.21167,-0.493408,-0.065918,74.401855,211.364731,23.681639,-23.0,-30.0,13.0
722187.0,0.420654,-0.523315,0.360229,68.115234,220.153793,119.689934,-22.0,-32.0,3.0
722220.0,0.272827,-0.708984,0.369629,90.026848,156.616211,106.262199,-22.0,-32.0,3.0
722253.0,0.317139,-0.81897,0.339966,104.980461,142.63916,142.333984,-14.0,-37.0,-8.0
722285.0,0.387817,-1.093994,0.369385,98.632805,115.173332,188.720688,-14.0,-37.0,-8.0
722316.0,0.284668,-1.233276,0.347412,78.308105,96.008293,200.927719,-14.0,-37.0,-8.0
722347.0,0.304199,-1.216187,0.311768,68.725586,65.551758,203.674301,-14.0,-37.0,-8.0
722380.0,0.255249,-1.336182,0.119019,54.870602,20.629881,207.397446,-1.0,-38.0,-18.0
722412.0,0.156006,-1.474243,-0.022949,39.672852,8.972168,207.153305,-1.0,-38.0,-18.0
722443.0,-0.011475,-1.44458,-0.062866,2.929687,23.925779,175.476059,-1.0,-38.0,-18.0
722475.0,-0.087769,-1.325317,-0.158813,-14.09912,28.869627,135.681152,15.0,-41.0,-17.0
722506.0,-0.436523,-1.274292,-0.213989,-32.958984,68.115234,88.256828,15.0,-41.0,-17.0
722537.0,-0.364624,-1.10022,-0.21106,-48.522945,101.867668,24.04785,15.0,-41.0,-17.0
722570.0,-0.049561,-0.904541,-0.670898,-47.180172,65.856934,-46.081539,16.0,-36.0,-19.0
722602.0,1.510986,-0.730713,-0.606201,-6.225585,124.755852,-22.583006,16.0,-36.0,-19.0
722633.0,0.808228,-0.640869,-0.418091,4.211426,-1.953125,-36.804199,16.0,-36.0,-19.0
722666.0,-0.162842,-1.337402,-0.224976,22.338865,-106.689445,-66.894531,15.0,-36.0,-21.0
722698.0,0.216187,-0.879395,-0.35083,-9.82666,54.016109,-40.832516,15.0,-36.0,-21.0
722730.0,0.371948,-0.960449,-0.322876,14.526366,17.578125,-39.672852,15.0,-36.0,-21.0
722763.0,0.226074,-0.834595,-0.390747,5.737304,8.666992,-27.770994,12.0,-35.0,-22.0
722795.0,0.246094,-0.962769,-0.324829,-0.244141,41.931149,-25.390623,12.0,-35.0,-22.0
722826.0,0.348877,-0.890991,-0.390869,-1.281738,29.602049,-27.099607,12.0,-35.0,-22.0
722858.0,0.291016,-0.901001,-0.354126,-1.098633,9.887695,-19.165039,13.0,-34.0,-23.0
722889.0,0.244263,-0.919189,-0.371216,-1.770019,9.338379,-20.629881,13.0,-34.0,-23.0
722921.0,0.243042,-0.915039,-0.368774,-7.202148,17.456055,-16.601562,13.0,-34.0,-23.0
722953.0,0.211548,-0.924194,-0.350464,-8.728027,14.343261,-15.258788,11.0,-33.0,-24.0
722984.0,0.264038,-0.893311,-0.35437,-7.080078,11.535644,-9.216309,11.0,-33.0,-24.0
723015.0,0.227661,-0.924561,-0.344482,-5.004883,10.803222,-10.559081,11.0,-33.0,-24.0
723047.0,0.210449,-0.905518,-0.351563,-4.455566,8.850098,-13.427733,10.0,-35.0,-29.0
723080.0,0.201538,-0.932739,-0.347778,-5.737304,12.878417,-15.075683,10.0,-35.0,-29.0
723111.0,0.173706,-0.930664,-0.330688,-2.380371,13.732909,-10.375976,10.0,-35.0,-29.0
723143.0,0.147949,-0.9552,-0.321289,-2.197266,21.606443,-8.117676,9.0,-35.0,-26.0
723174.0,0.217896,-0.930298,-0.355469,-4.02832,23.254393,-13.671874,9.0,-35.0,-26.0
723206.0,0.156128,-0.914795,-0.351074,-3.662109,18.493652,-11.474608,9.0,-35.0,-26.0
723238.0,0.125,-0.962402,-0.340576,-4.577637,26.000975,-17.944336,8.0,-33.0,-31.0
723270.0,0.221436,-0.942505,-0.392822,-7.690429,38.269043,-17.456055,8.0,-33.0,-31.0
723302.0,0.180542,-0.968506,-0.386841,-11.901855,33.874512,-20.812986,8.0,-33.0,-31.0
723334.0,0.18811,-0.979614,-0.39856,-16.113281,34.240723,-26.855467,5.0,-31.0,-30.0
723367.0,0.118652,-1.074829,-0.34082,-21.240232,45.227047,-41.931149,5.0,-31.0,-30.0
723398.0,0.127686,-1.112549,-0.333374,-20.874022,54.26025,-41.259762,5.0,-31.0,-30.0
723430.0,0.048828,-1.224976,-0.319092,-25.695799,57.861324,-77.636719,5.0,-31.0,-30.0
723462.0,0.179687,-1.373657,-0.339722,-17.63916,90.942375,-115.783684,1.0,-26.0,-31.0
723495.0,0.091797,-1.456787,-0.202881,-15.136718,118.408195,-137.634277,1.0,-26.0,-31.0
723527.0,0.606079,-1.536865,-0.39978,-31.98242,186.218246,-135.925293,1.0,-26.0,-31.0
723559.0,0.407593,-0.528687,-0.381104,-27.526854,165.832504,-135.131836,0.0,-12.0,-37.0
723591.0,-0.691895,-0.660767,-0.424683,40.954586,89.172356,-88.439934,0.0,-12.0,-37.0
723622.0,-0.798462,-0.958618,-0.620728,44.006344,130.859375,-44.616695,0.0,-12.0,-37.0
723655.0,-0.322876,-0.462769,-0.099243,22.949217,172.180161,-18.127441,0.0,-7.0,-34.0
723686.0,0.018799,-0.23645,0.058228,64.331055,95.520012,3.845215,0.0,-7.0,-34.0
723717.0,0.422363,-0.323608,0.220825,58.593746,129.577637,106.140129,0.0,-7.0,-34.0
723749.0,0.417236,-0.748779,0.463745,55.664059,122.558586,152.22168,6.0,0.0,-37.0
723780.0,0.222412,-0.641968,0.234131,41.687008,26.794432,149.353027,6.0,0.0,-37.0
723811.0,0.145996,-0.907349,0.258179,39.123535,65.368652,212.219223,6.0,0.0,-37.0
723843.0,0.330444,-1.053711,0.151245,32.775879,24.536131,208.435043,11.0,0.0,-38.0
723874.0,0.175903,-1.196167,0.014404,38.94043,-3.112793,233.459457,11.0,0.0,-38.0
723905.0,0.286865,-1.447144,-0.17334,36.376953,-12.08496,235.046371,11.0,0.0,-38.0
723937.0,0.359985,-1.506592,-0.231201,35.27832,-40.40527,228.393539,17.0,4.0,-39.0
723968.0,0.165283,-1.63855,-0.261597,35.217285,-80.444328,208.679184,17.0,4.0,-39.0
724000.0,0.004028,-1.369385,-0.340454,0.427246,-67.016602,175.7202,17.0,4.0,-39.0
724033.0,-0.063477,-1.311646,-0.400757,2.441406,-31.005857,131.347656,14.0,4.0,-40.0
724065.0,-0.36145,-1.023071,-0.299194,-5.004883,30.822752,88.073723,14.0,4.0,-40.0
724097.0,-0.081177,-1.046997,-0.151978,-9.70459,61.462399,30.273436,14.0,4.0,-40.0
724129.0,-0.049927,-1.023193,-0.254395,-12.145995,2.01416,-44.921871,11.0,6.0,-45.0
724161.0,-0.148193,-1.111328,-0.310913,-6.835937,-7.385253,-108.39843,11.0,6.0,-45.0
724192.0,1.199341,-0.94873,-0.522339,-19.714355,50.964352,-78.369141,11.0,6.0,-45.0
724225.0,0.200562,-0.674683,0.278442,-26.245115,162.597641,14.892577,8.0,12.0,-37.0
724256.0,0.291382,-1.122925,-0.46875,27.221678,-42.175289,-60.119625,8.0,12.0,-37.0
724287.0,0.12207,-1.13208,-0.129761,37.414551,-50.598141,-58.105465,8.0,12.0,-37.0
724319.0,0.507812,-0.813843,-0.376221,36.132812,-20.690916,-61.95068,12.0,7.0,-38.0
724350.0,0.24707,-0.87915,-0.298706,39.428711,-40.954586,-36.376953,12.0,7.0,-38.0
724381.0,0.128784,-1.029541,-0.334961,24.475096,-0.793457,-37.902832,12.0,7.0,-38.0
724412.0,0.224854,-0.990967,-0.324341,-6.530761,55.603024,-35.095215,12.0,7.0,-38.0
724444.0,0.439941,-0.890381,-0.290283,-3.173828,32.226562,-26.672361,13.0,5.0,-39.0
724475.0,0.311279,-0.931152,-0.29541,7.385253,-7.507324,-24.963377,13.0,5.0,-39.0
724506.0,0.192749,-0.912231,-0.321899,5.371093,-9.765625,-21.789549,13.0,5.0,-39.0
724538.0,0.340576,-0.905151,-0.331055,-2.075195,11.718749,-19.40918,14.0,8.0,-35.0
724570.0,0.175049,-0.94812,-0.289795,-5.554199,23.803709,-4.882812,14.0,8.0,-35.0
724601.0,0.305298,-0.925781,-0.257568,-2.502441,23.437498,-6.591796,14.0,8.0,-35.0
724634.0,0.282471,-0.9198,-0.294067,4.516602,4.089355,-10.0708,13.0,9.0,-39.0
724665.0,0.259399,-0.90918,-0.313721,3.784179,5.432128,-19.53125,13.0,9.0,-39.0
724696.0,0.153076,-0.932861,-0.295288,0.976562,14.526366,-32.165527,13.0,9.0,-39.0
724728.0,0.218018,-0.942261,-0.311523,-4.150391,30.334471,-43.640133,14.0,10.0,-32.0
724760.0,0.238525,-0.957275,-0.302856,0.732422,24.230955,-33.38623,14.0,10.0,-32.0
724792.0,0.14209,-0.941284,-0.318848,5.187988,19.53125,-25.512693,14.0,10.0,-32.0
724824.0,0.197998,-0.970337,-0.33313,-1.220703,29.052732,-27.587889,14.0,10.0,-37.0
724857.0,0.215332,-0.983521,-0.352905,0.305176,16.479492,-10.498046,14.0,10.0,-37.0
724888.0,0.12146,-0.991699,-0.363647,-4.089355,17.150879,-17.700195,14.0,10.0,-37.0
724920.0,0.140625,-1.040527,-0.333618,-11.413573,31.372068,-11.413573,15.0,13.0,-34.0
724952.0,0.203613,-1.130981,-0.353149,-20.019531,31.494139,-17.822266,15.0,13.0,-34.0
