timestamp,accelX,accelY,accelZ,gyroX,gyroY,gyroZ,magX,magY,magZ
209509.0,0.0,0.0,0.0,0.0,0.0,0.0,2.0,-2.0,-36.0
209533.0,0.0,0.0,0.0,0.0,0.0,0.0,2.0,-2.0,-36.0
209559.0,0.0,0.0,0.0,0.0,0.0,0.0,2.0,-2.0,-36.0
209593.0,-0.010132,-1.027466,-0.181885,-1.098633,11.291503,-73.913574,2.0,-2.0,-36.0
209635.0,-0.062622,-0.879883,-0.177612,0.427246,24.04785,-69.519043,1.0,0.0,-33.0
209669.0,-0.136719,-1.145264,-0.212646,-6.225585,22.827147,-57.250973,1.0,0.0,-33.0
209705.0,-0.104614,-0.84314,-0.19812,1.831055,-1.098633,-43.640133,2.0,1.0,-37.0
209740.0,-0.192505,-0.977051,-0.174438,0.610352,-0.12207,-26.855467,2.0,1.0,-37.0
209771.0,-0.22583,-1.011475,-0.162598,1.037598,7.019042,-18.249512,2.0,1.0,-37.0
209803.0,-0.177979,-1.033813,-0.190552,3.540039,10.131835,-10.0708,3.0,1.0,-36.0
209835.0,-0.200806,-0.956665,-0.194702,5.554199,14.892577,-5.249023,3.0,1.0,-36.0
209866.0,-0.187988,-1.029419,-0.190918,5.92041,12.756347,5.432128,3.0,1.0,-36.0
209899.0,-0.18042,-0.976318,-0.203125,5.737304,16.296387,7.690429,3.0,1.0,-36.0
209935.0,-0.182739,-0.912964,-0.219116,2.868652,21.423338,1.525879,3.0,0.0,-41.0
209968.0,-0.139404,-0.974609,-0.202637,-1.159668,26.18408,5.615234,3.0,0.0,-41.0
210003.0,-0.115479,-0.939941,-0.254272,-8.300781,15.686034,-2.197266,4.0,1.0,-37.0
210038.0,-0.153076,-0.997803,-0.197754,-12.878417,17.211914,-6.530761,4.0,1.0,-37.0
210076.0,-0.181885,-0.970581,-0.185913,-15.502929,10.31494,-8.239746,4.0,1.0,-37.0
210108.0,-0.208252,-0.96167,-0.190308,-17.089844,7.446289,-5.126953,2.0,5.0,-36.0
210140.0,-0.193237,-0.997437,-0.122559,-16.845703,9.338379,-3.845215,2.0,5.0,-36.0
210171.0,-0.199219,-0.96228,-0.172607,-17.76123,5.859375,-5.126953,2.0,5.0,-36.0
210203.0,-0.183472,-0.996338,-0.11499,-15.86914,10.986327,-1.586914,1.0,7.0,-32.0
210235.0,-0.208618,-0.963989,-0.141846,-13.549804,10.681151,-2.441406,1.0,7.0,-32.0
210267.0,-0.196899,-1.002686,-0.105225,-11.901855,20.202635,-3.601074,1.0,7.0,-32.0
210299.0,-0.130493,-0.966919,-0.112183,-11.108397,20.874022,-8.422852,2.0,6.0,-38.0
210330.0,-0.209717,-0.990234,-0.116699,-8.544922,-1.342773,-2.685547,2.0,6.0,-38.0
210361.0,-0.214233,-0.983765,-0.102417,-8.483887,5.126953,0.244141,2.0,6.0,-38.0
210395.0,-0.223389,-0.976807,-0.06897,-9.58252,3.662109,1.037598,-2.0,6.0,-33.0
210427.0,-0.223877,-0.966187,-0.065063,-7.324218,3.601074,1.403808,-2.0,6.0,-33.0
210458.0,-0.2229,-1.002319,-0.07605,-4.211426,2.01416,6.16455,-2.0,6.0,-33.0
210489.0,-0.206177,-0.962158,-0.089844,-3.784179,1.403808,6.774902,-2.0,6.0,-33.0
210523.0,-0.206299,-0.980835,-0.06897,1.342773,6.408691,5.676269,-1.0,7.0,-39.0
210554.0,-0.164185,-0.995239,-0.123901,0.183105,3.723144,2.441406,-1.0,7.0,-39.0
210586.0,-0.164673,-0.996094,-0.107666,-4.394531,6.958007,-2.990722,-1.0,7.0,-39.0
210618.0,-0.219727,-0.986938,-0.073608,-7.263183,8.728027,-7.873535,0.0,7.0,-33.0
210649.0,-0.191772,-0.986816,-0.071533,-5.737304,11.535644,-7.202148,0.0,7.0,-33.0
210680.0,-0.212891,-0.971069,-0.055176,-4.02832,10.925292,-7.446289,0.0,7.0,-33.0
210712.0,-0.210205,-0.988892,-0.073608,-2.441406,9.155273,-6.896972,0.0,8.0,-40.0
210744.0,-0.217529,-0.988647,-0.055176,-0.976562,6.713867,-4.943848,0.0,8.0,-40.0
210775.0,-0.221313,-0.974365,-0.084106,-1.037598,8.056641,-5.859375,0.0,8.0,-40.0
210808.0,-0.227417,-0.979126,-0.066772,-1.281738,8.300781,-4.760742,1.0,7.0,-34.0
210839.0,-0.226196,-0.973022,-0.068726,-3.051758,9.216309,-4.638672,1.0,7.0,-34.0
210870.0,-0.206787,-0.97876,-0.071655,-2.319336,1.953125,-4.150391,1.0,7.0,-34.0
210902.0,-0.230347,-0.982666,-0.072266,-0.671387,-2.075195,-1.708984,0.0,8.0,-35.0
210934.0,-0.240356,-0.967529,-0.053833,-0.793457,1.525879,-1.708984,0.0,8.0,-35.0
210966.0,-0.221191,-0.989868,-0.050903,2.075195,3.784179,-0.610352,0.0,8.0,-35.0
210998.0,-0.255615,-0.961304,-0.066162,1.89209,2.319336,-1.037598,0.0,8.0,-30.0
211029.0,-0.208496,-0.984619,-0.064331,6.04248,-4.760742,4.760742,0.0,8.0,-30.0
211060.0,-0.21521,-0.973022,-0.078735,5.859375,-8.483887,3.295898,0.0,8.0,-30.0
211092.0,-0.225952,-0.978516,-0.049927,6.347656,-9.094238,1.89209,-1.0,3.0,-36.0
211124.0,-0.230835,-0.985107,-0.078857,9.399414,-15.136718,2.075195,-1.0,3.0,-36.0
211155.0,-0.146729,-0.984619,-0.087891,7.873535,-8.666992,-6.225585,-1.0,3.0,-36.0
211189.0,-0.253052,-0.971924,-0.054443,7.507324,-7.019042,-13.671874,0.0,8.0,-36.0
211221.0,-0.216187,-0.970947,-0.079102,12.939452,-17.211914,-9.765625,0.0,8.0,-36.0
211252.0,-0.222046,-0.96875,-0.108276,9.643555,-21.301268,-13.366698,0.0,8.0,-36.0
211284.0,-0.304932,-0.969604,-0.119141,7.751464,-18.859863,-12.145995,0.0,6.0,-39.0
211317.0,-0.30188,-0.977417,-0.12915,13.305663,-6.652832,-2.624511,0.0,6.0,-39.0
211349.0,-0.265869,-1.008545,-0.229004,24.29199,9.216309,21.423338,0.0,6.0,-39.0
211382.0,-0.317505,-1.201172,-0.270874,26.30615,18.737793,56.27441,2.0,4.0,-34.0
211414.0,-0.46106,-2.031982,0.00769,15.624999,63.415524,123.962395,2.0,4.0,-34.0
211445.0,0.517456,-2.461792,0.370239,-1.770019,93.322746,153.015137,2.0,4.0,-34.0
211477.0,1.206055,-1.271973,-1.018799,2.075195,-17.333984,166.25975,0.0,1.0,-34.0
211509.0,-1.092896,-0.715332,-0.994019,45.593258,-98.022453,-42.358395,0.0,1.0,-34.0
211540.0,-2.981812,-1.043579,-0.945068,66.101074,-140.258789,-276.611328,0.0,1.0,-34.0
211573.0,-0.358276,-1.128662,-0.225464,60.913082,-34.729004,-187.866196,7.0,2.0,-37.0
211607.0,1.849854,0.08252,0.837158,-29.785154,119.99511,-143.188477,7.0,2.0,-37.0
211640.0,2.466309,2.393677,0.869629,-24.536131,1.831055,41.015621,7.0,2.0,-37.0
211673.0,1.099365,0.261353,0.166748,-16.052246,-95.825188,231.506332,5.0,3.0,-33.0
211704.0,-1.328613,-1.379883,-0.769409,-19.65332,-182.311996,160.705551,5.0,3.0,-33.0
211736.0,-1.634766,-0.883789,-0.731567,-2.746582,-53.588863,17.272949,5.0,3.0,-33.0
211769.0,-1.251221,-2.508789,-0.03479,25.878904,143.554687,-78.613281,2.0,1.0,-35.0
211800.0,3.231323,-0.394287,-0.6521,-34.240723,46.386715,-47.119137,2.0,1.0,-35.0
211831.0,0.708008,-3.837402,-0.216675,59.143063,-126.770012,28.564451,2.0,1.0,-35.0
211863.0,-1.837891,1.800903,0.573608,-36.987305,138.122559,-373.290985,2.0,1.0,-35.0
211896.0,0.054687,-1.001831,-0.714111,24.536131,-8.056641,133.483887,1.0,2.0,-33.0
211927.0,-0.251465,-1.730957,0.012939,10.742187,45.959469,-58.532711,1.0,2.0,-33.0
211958.0,0.119507,-0.799683,-0.646851,25.390623,-8.972168,-11.108397,1.0,2.0,-33.0
211990.0,-0.35791,-0.91333,-0.263062,-8.544922,10.131835,-18.920898,7.0,6.0,-34.0
212022.0,-0.494995,-1.020752,-0.057007,-11.108397,-16.418457,6.958007,7.0,6.0,-34.0
212053.0,-0.385132,-0.991699,-0.262451,-14.892577,-8.789063,55.297848,7.0,6.0,-34.0
212089.0,-0.437988,-1.617065,-0.346558,24.902342,58.28857,115.478508,7.0,5.0,-40.0
212121.0,-0.163818,-2.649048,0.635498,22.521971,113.586418,132.019043,7.0,5.0,-40.0
212153.0,1.37207,-1.982544,0.062988,18.554687,86.85302,178.283676,7.0,5.0,-40.0
212185.0,-0.053467,-1.082153,-1.69751,-6.835937,-72.875977,155.700684,4.0,8.0,-37.0
212217.0,-3.935059,-1.134888,-1.284424,7.324218,-91.064445,-198.852524,4.0,8.0,-37.0
212249.0,-0.974243,-1.681274,-0.538696,-6.103515,84.106438,-272.094727,4.0,8.0,-37.0
212282.0,0.912964,-0.323853,0.398315,-10.864257,45.166012,-256.164551,6.0,7.0,-34.0
212318.0,1.913818,1.438354,0.521851,-90.942375,-30.029295,-198.791489,6.0,7.0,-34.0
212349.0,2.046265,1.688354,0.338501,-11.657714,14.465331,32.653809,6.0,7.0,-34.0
212382.0,1.147583,0.636475,0.182251,-14.831542,-9.643555,160.217285,4.0,6.0,-38.0
212413.0,0.074463,-0.629272,-0.112793,4.211426,-15.319823,205.932602,4.0,6.0,-38.0
212444.0,-1.050659,-1.26709,-0.557129,-7.690429,-45.471188,130.187988,4.0,6.0,-38.0
212476.0,-1.359375,-0.540894,-0.936523,60.852047,-4.943848,76.11084,1.0,2.0,-35.0
212508.0,1.792603,-3.125244,0.287598,-78.979492,174.194321,-80.993645,1.0,2.0,-35.0
212539.0,0.395386,1.304565,-1.707764,56.27441,-179.199203,-42.358395,1.0,2.0,-35.0
212571.0,-1.764282,1.435181,-0.993774,-96.069328,-48.278805,-233.215317,1.0,1.0,-33.0
212602.0,-0.314697,-0.758911,1.73584,-7.141113,166.748032,-93.261711,1.0,1.0,-33.0
212635.0,-0.131104,-1.484863,-1.022095,4.760742,-34.545898,-9.643555,1.0,1.0,-33.0
212667.0,-0.394897,-0.769897,-0.055542,-10.498046,-22.583006,-14.648437,0.0,4.0,-34.0
212699.0,-0.36853,-1.057983,-0.276489,-5.981445,-2.746582,-5.554199,0.0,4.0,-34.0
212731.0,-0.412964,-1.057495,0.002808,12.939452,4.638672,40.100098,0.0,4.0,-34.0
212764.0,-0.791382,-1.21582,-0.178345,23.803709,-16.479492,100.036613,3.0,6.0,-36.0
212795.0,-0.429932,-2.807251,0.216919,57.739254,96.313469,178.771957,3.0,6.0,-36.0
212826.0,0.77832,-2.953125,0.19873,41.687008,85.266106,190.124496,3.0,6.0,-36.0
212858.0,1.182983,-1.081055,-1.434204,22.27783,-40.771481,178.039536,2.0,7.0,-33.0
212889.0,-3.999878,-1.947998,-1.806152,-14.160155,-13.305663,-350.585907,2.0,7.0,-33.0
212921.0,-0.354126,-3.19519,-0.895508,20.568846,99.609367,-427.978485,2.0,7.0,-33.0
212955.0,1.642578,-1.025269,0.024414,-49.316402,140.380859,-358.764618,9.0,14.0,-31.0
212986.0,3.902466,2.47644,1.15625,-92.77343,-33.935547,-262.817383,9.0,14.0,-31.0
213017.0,3.867188,1.824219,0.976929,13.061522,-28.869627,94.421379,9.0,14.0,-31.0
213048.0,2.616455,1.201416,0.581299,-5.615234,-81.29882,275.512695,8.0,10.0,-34.0
213079.0,0.533813,-1.498901,-0.390869,32.531738,-103.637688,375.36618,8.0,10.0,-34.0
213110.0,-1.444702,-3.417969,-1.16687,40.588375,-88.439934,296.325684,8.0,10.0,-34.0
213143.0,-2.060547,-0.605347,-0.55603,-44.31152,-95.275871,60.302731,7.0,2.0,-40.0
213174.0,-1.036743,-0.406372,-0.165039,0.732422,28.686522,44.128414,7.0,2.0,-40.0
213206.0,-1.311523,-3.19043,-0.124268,-27.709959,3.479004,-306.396484,7.0,2.0,-40.0
213237.0,2.405396,1.276367,-1.434204,-33.081055,-62.805172,17.089844,7.0,2.0,-40.0
213269.0,-1.122437,-3.59082,0.487793,38.391113,47.241207,121.520988,2.0,4.0,-33.0
213301.0,-2.577026,1.455811,-0.12085,-111.328117,18.737793,-360.229462,2.0,4.0,-33.0
213332.0,-0.035889,-1.02417,0.092651,3.356933,-34.606934,71.655273,2.0,4.0,-33.0
213364.0,-0.277588,-1.175049,-0.211304,-28.930662,-9.521484,-43.884274,4.0,3.0,-34.0
213396.0,-0.36499,-0.943726,-0.295776,-15.319823,-27.160643,16.296387,4.0,3.0,-34.0
213428.0,-0.482056,-0.815186,0.017944,8.666992,20.26367,4.943848,4.0,3.0,-34.0
213460.0,-0.455566,-1.123535,-0.166992,59.326168,19.40918,62.07275,2.0,2.0,-36.0
213494.0,-0.545654,-1.056885,-0.298462,68.664551,25.329588,112.487785,2.0,2.0,-36.0
213525.0,-0.506226,-2.436035,0.241699,81.909172,92.041008,177.124008,2.0,2.0,-36.0
213557.0,0.034058,-2.506104,0.301758,41.564938,90.576164,204.956039,5.0,4.0,-36.0
213588.0,1.643188,-1.156006,-1.291138,-11.169433,23.803709,278.381348,5.0,4.0,-36.0
213619.0,-3.999878,-1.739502,-1.833008,3.234863,-14.465331,-108.032219,5.0,4.0,-36.0
213653.0,-1.8396,-3.112427,-0.946655,-11.169433,107.971184,-441.223114,5.0,10.0,-35.0
213685.0,0.474487,-2.146729,-0.540527,-38.452148,103.759758,-421.447723,5.0,10.0,-35.0
213716.0,1.861206,-0.48877,0.443359,-25.817869,51.757809,-349.731415,5.0,10.0,-35.0
213748.0,3.600464,2.458496,0.855347,-63.598629,-55.847164,-289.489746,15.0,13.0,-31.0
213780.0,3.977905,1.786621,1.146729,10.31494,-36.132812,0.427246,15.0,13.0,-31.0
213811.0,3.029175,1.312256,0.602539,-16.601562,-61.401363,267.333984,15.0,13.0,-31.0
213843.0,1.056885,-0.934448,-0.113281,-8.239746,33.813477,546.081543,7.0,10.0,-30.0
213874.0,-1.281128,-3.999878,-0.994629,-40.771481,15.99121,293.823242,7.0,10.0,-30.0
213905.0,-2.730591,-1.106567,-1.115479,31.799314,-251.281723,144.897461,7.0,10.0,-30.0
213939.0,1.776611,-3.482422,-0.689209,46.936031,7.873535,-237.792953,4.0,4.0,-38.0
213971.0,-1.529297,1.578003,-1.237183,-9.58252,-79.223633,-33.26416,4.0,4.0,-38.0
214002.0,1.814575,-3.818848,-0.449219,-14.160155,62.866207,79.040527,4.0,4.0,-38.0
214035.0,-2.276978,1.36377,0.462036,-42.785641,86.914055,-287.597656,4.0,9.0,-35.0
214066.0,-0.125977,-1.014526,-0.27356,30.761717,-63.598629,125.244133,4.0,9.0,-35.0
214098.0,-0.4021,-0.491821,-0.239136,-35.766602,3.234863,-66.650391,4.0,9.0,-35.0
214130.0,-0.361328,-1.165771,-0.336304,-14.038085,-44.738766,14.770507,5.0,5.0,-37.0
214161.0,-0.36499,-0.901367,-0.138672,-12.268065,5.249023,17.63916,5.0,5.0,-37.0
214192.0,-0.381592,-1.010376,-0.114502,5.187988,4.211426,23.132322,5.0,5.0,-37.0
214224.0,-0.623779,-0.99939,-0.012695,40.771481,3.723144,79.956055,4.0,8.0,-34.0
214255.0,-0.448364,-1.73999,-0.191406,63.781734,28.808592,134.58252,4.0,8.0,-34.0
214286.0,-0.194824,-2.860107,0.504639,46.752926,90.698235,162.719711,4.0,8.0,-34.0
214318.0,2.561035,-2.389282,-0.697266,-3.967285,24.29199,229.919418,4.0,8.0,-34.0
214350.0,-3.999878,-1.588257,-2.330078,11.108397,-72.44873,23.681639,4.0,7.0,-37.0
214381.0,-2.085083,-2.540039,-1.232056,-20.080564,77.697754,-447.387665,4.0,7.0,-37.0
214412.0,2.066406,-2.00415,-0.263428,-31.372068,110.778801,-372.924774,4.0,7.0,-37.0
214446.0,2.442871,0.264771,0.3125,-31.921385,17.028809,-268.127441,11.0,13.0,-36.0
214477.0,3.547119,3.243408,0.93335,-42.5415,-38.879395,-73.669434,11.0,13.0,-36.0
214508.0,2.726807,0.83606,0.941772,31.799314,-63.598629,228.942856,11.0,13.0,-36.0
214540.0,0.473755,-0.616211,0.179687,18.005371,-87.463371,381.835907,7.0,10.0,-35.0
214571.0,-1.437988,-2.492188,-0.219238,-32.470703,-18.249512,245.971664,7.0,10.0,-35.0
214605.0,-1.970337,-0.929565,-0.614258,-31.921385,-50.598141,58.1665,7.0,10.0,-35.0
214638.0,-0.861328,-0.172607,-0.591431,-47.180172,-74.951172,20.1416,2.0,2.0,-32.0
214670.0,-2.663818,-0.790039,-1.383789,39.18457,-33.874512,-213.01268,2.0,2.0,-32.0
214702.0,3.56665,-1.403687,-0.389282,-68.237305,45.288082,-34.973145,2.0,2.0,-32.0
214734.0,-1.481445,0.125488,-0.440552,48.33984,47.424313,-0.12207,2.0,3.0,-35.0
214765.0,-2.119507,2.399292,-0.641846,-158.447266,-52.734371,-182.250961,2.0,3.0,-35.0
214796.0,-0.012573,-1.78772,0.940796,-2.685547,113.830559,-177.185043,2.0,3.0,-35.0
214829.0,-0.655396,-1.37915,-0.137329,42.724606,-55.114742,135.070801,4.0,7.0,-37.0
214861.0,-0.363281,-0.624146,-0.328613,-38.513184,-45.654293,19.042969,4.0,7.0,-37.0
214892.0,-0.523071,-1.242065,-0.077026,10.986327,3.90625,27.160643,4.0,7.0,-37.0
214924.0,-0.610962,-1.503662,-0.060669,40.039062,1.525879,69.335937,2.0,3.0,-30.0
214956.0,-0.350586,-2.096558,0.135132,46.691891,31.188963,137.268066,2.0,3.0,-30.0
214987.0,1.036743,-2.898682,-0.253174,51.696774,73.730469,184.020981,2.0,3.0,-30.0
215019.0,-1.673584,-1.759033,-1.529663,31.921385,-56.213375,140.258789,4.0,6.0,-36.0
215051.0,-3.583618,-2.861084,-1.765991,-4.211426,38.879395,-381.04245,4.0,6.0,-36.0
215083.0,-1.841187,-3.476807,-1.07373,-8.728027,143.493652,-479.248016,4.0,6.0,-36.0
215115.0,2.229492,-0.921265,0.399292,-38.513184,49.316402,-472.534149,11.0,14.0,-33.0
215147.0,4.0,1.357544,1.020752,-28.015135,-111.755363,-368.957489,11.0,14.0,-33.0
215178.0,3.987793,2.552368,1.334351,2.258301,-30.639647,-125.610344,11.0,14.0,-33.0
215210.0,3.296143,0.963623,0.940308,1.281738,-113.464348,310.48584,12.0,5.0,-38.0
215241.0,1.879395,0.046753,0.379883,-13.366698,47.180172,474.91452,12.0,5.0,-38.0
215272.0,-0.154175,-2.705078,-0.220215,-11.96289,50.415035,492.065399,12.0,5.0,-38.0
215304.0,-1.991089,-3.052002,-0.663696,-54.870602,5.004883,233.154282,2.0,4.0,-30.0
215335.0,-1.489136,-0.866577,-0.908569,-5.615234,-138.183594,201.29393,2.0,4.0,-30.0
215366.0,-1.337158,-3.550537,0.065796,34.790039,-73.730469,-194.763168,2.0,4.0,-30.0
215397.0,1.34668,1.347046,-0.937988,-115.173332,-22.827147,-45.349117,2.0,4.0,-30.0
215429.0,-0.182617,-2.709106,-0.724609,72.753906,-10.559081,147.155762,3.0,0.0,-35.0
215461.0,-2.67041,1.532715,-0.115356,-151.245117,153.625488,-453.796356,3.0,0.0,-35.0
215492.0,0.106812,-1.182373,0.172852,16.174316,-39.306641,110.41259,3.0,0.0,-35.0
215524.0,-0.38623,-1.136719,0.00647,-25.756834,51.940914,-63.232418,1.0,5.0,-37.0
215556.0,-0.408447,-1.015625,-0.166138,-4.211426,-28.442381,26.672361,1.0,5.0,-37.0
215588.0,-0.520142,-0.86084,-0.073853,2.01416,17.39502,6.896972,1.0,5.0,-37.0
215620.0,-0.492187,-1.217529,-0.027954,62.927242,25.634764,52.856441,1.0,7.0,-37.0
215651.0,-0.427612,-1.407349,-0.118774,85.632317,23.742674,68.969727,1.0,7.0,-37.0
215682.0,-0.662476,-1.874878,0.213135,70.495605,20.1416,143.310547,1.0,7.0,-37.0
215714.0,0.875,-2.794434,0.113159,54.199215,124.572746,196.289047,5.0,8.0,-35.0
215746.0,0.641113,-1.381958,-1.361938,1.770019,-76.538086,239.746078,5.0,8.0,-35.0
215778.0,-3.999878,-2.064819,-2.128784,-7.507324,-37.231445,-283.813477,5.0,8.0,-35.0
215810.0,-2.161621,-3.17627,-1.125488,-11.657714,184.265121,-400.878876,3.0,10.0,-34.0
215841.0,0.455688,-2.36853,-0.178833,-81.237785,177.062973,-442.443817,3.0,10.0,-34.0
215872.0,3.853394,0.531006,0.665527,-44.55566,-73.791504,-385.559052,3.0,10.0,-34.0
215905.0,4.0,3.677979,0.83374,-40.710445,-37.963867,-231.445297,11.0,14.0,-31.0
215936.0,3.835815,1.502319,1.012085,38.024902,-68.969727,234.741196,11.0,14.0,-31.0
215971.0,2.551147,0.255127,0.502808,72.32666,30.639647,508.972137,11.0,14.0,-31.0
216002.0,-0.230713,-3.78186,-0.835693,39.001465,-44.921871,501.892059,7.0,7.0,-34.0
216033.0,-2.741699,-1.12793,-0.74939,-56.823727,-132.263184,180.236801,7.0,7.0,-34.0
216064.0,-2.34314,-1.060059,-1.043091,35.949707,-86.303703,166.076645,7.0,7.0,-34.0
216096.0,2.237061,-3.547119,0.186646,-31.127928,-9.94873,-351.074188,1.0,3.0,-39.0
216127.0,-0.699463,0.746704,-1.753784,45.104977,-158.38623,-86.97509,1.0,3.0,-39.0
216159.0,0.012573,-2.193115,0.03772,-15.380858,188.781723,42.846676,1.0,3.0,-39.0
216192.0,-0.217041,-0.766602,-0.466309,-204.101547,-81.29882,-163.513168,0.0,6.0,-34.0
216224.0,-0.310547,-1.534424,0.150635,63.354488,-18.859863,-36.499023,0.0,6.0,-34.0
216256.0,-0.264038,-1.173706,-0.153442,10.375976,36.804199,32.958984,0.0,6.0,-34.0
216288.0,-0.334595,-0.751099,-0.212036,5.432128,-30.639647,34.362793,3.0,4.0,-37.0
216320.0,-0.44751,-1.308472,-0.057739,24.108885,15.380858,80.26123,3.0,4.0,-37.0
216352.0,-0.437256,-1.735718,-0.136963,59.753414,8.605957,110.107414,3.0,4.0,-37.0
216383.0,-0.35437,-2.752075,0.437622,56.091305,74.584961,167.297348,3.0,4.0,-37.0
216415.0,1.775146,-2.473633,-0.492798,18.188477,96.80175,179.992661,2.0,5.0,-33.0
216446.0,-3.212524,-1.983765,-2.0802,29.357908,-55.175777,-94.543449,2.0,5.0,-33.0
216481.0,-1.601196,-3.826538,-1.08606,-66.223145,173.461899,-498.35202,2.0,5.0,-33.0
216513.0,0.712402,-3.312622,-0.539917,-99.792473,149.719238,-567.565918,3.0,11.0,-33.0
216544.0,3.584473,-0.603271,0.250977,-83.862297,-24.902342,-454.406708,3.0,11.0,-33.0
216575.0,4.0,2.440796,0.532349,-109.436028,-90.209953,-284.057617,3.0,11.0,-33.0
216607.0,3.988281,2.834351,0.692871,38.574219,-30.029295,140.441895,9.0,13.0,-37.0
216638.0,3.304199,1.081665,0.452148,44.738766,88.98925,440.551727,9.0,13.0,-37.0
216669.0,1.30835,-0.905273,0.136475,91.796867,113.037102,564.025879,9.0,13.0,-37.0
216701.0,-1.457275,-3.752686,-1.223145,113.708488,-157.531738,340.698212,5.0,9.0,-36.0
216732.0,-3.674927,-1.452515,-0.7146,4.394531,-208.923325,197.570786,5.0,9.0,-36.0
216763.0,-2.836182,-3.08606,-0.763306,43.029781,53.894039,-18.249512,5.0,9.0,-36.0
216795.0,3.389771,-0.267822,0.121094,-148.071289,112.060539,-164.184555,3.0,8.0,-36.0
216827.0,-1.146973,-1.356689,-1.450439,-88.134758,-109.497063,-33.14209,3.0,8.0,-36.0
216859.0,0.949341,-3.340454,0.312988,5.310058,91.918938,-41.015621,3.0,8.0,-36.0
216891.0,-0.074951,-0.484741,0.50708,-20.507811,43.518063,-159.790039,2.0,8.0,-39.0
216923.0,-0.610474,-1.092163,-0.227295,-7.080078,-67.993164,86.120598,2.0,8.0,-39.0
216954.0,-0.417358,-0.831787,-0.112915,-21.606443,6.652832,-23.193357,2.0,8.0,-39.0
216987.0,-0.348389,-1.104858,-0.200317,-6.16455,-14.465331,42.41943,0.0,5.0,-44.0
217019.0,-0.481812,-1.045776,0.019531,30.273436,-11.169433,47.241207,0.0,5.0,-44.0
217051.0,-0.394653,-1.988525,0.023804,97.534172,-2.624511,96.069328,0.0,5.0,-44.0
217083.0,-0.509277,-1.854126,0.335327,57.312008,29.907225,127.92968,3.0,5.0,-38.0
217116.0,1.168945,-2.745972,0.021362,54.504391,47.241207,215.759262,3.0,5.0,-38.0
217148.0,-0.133423,-1.431519,-1.546143,3.662109,-148.620605,133.361816,3.0,5.0,-38.0
217181.0,-3.24939,-1.949463,-1.71582,9.58252,-42.968746,-335.082977,4.0,3.0,-35.0
217213.0,-0.883545,-2.953979,-0.717651,13.305663,172.302231,-383.911102,4.0,3.0,-35.0
217245.0,1.715698,-0.900024,0.026489,-52.734371,86.486809,-365.722626,4.0,3.0,-35.0
217277.0,3.407593,1.090088,0.725098,-54.809566,-22.888182,-285.766602,10.0,11.0,-35.0
217308.0,3.844727,2.735718,0.809692,48.278805,19.958496,2.563476,10.0,11.0,-35.0
217339.0,2.613037,1.013306,0.67981,29.663084,-85.693352,257.202148,10.0,11.0,-35.0
217372.0,0.993896,-1.063843,-0.001953,72.998047,-67.626953,393.127411,5.0,8.0,-33.0
217404.0,-0.973267,-3.722656,-0.9823,-12.695312,11.840819,354.125946,5.0,8.0,-33.0
217435.0,-1.746948,-1.445435,-0.487549,-63.781734,-53.771969,114.31884,5.0,8.0,-33.0
217468.0,-2.374268,-0.346313,-0.728638,76.23291,5.126953,82.397453,2.0,5.0,-38.0
217499.0,4.0,0.05127,-1.11731,-201.416,47.180172,-187.744125,2.0,5.0,-38.0
217530.0,-2.657593,-0.189819,-0.972778,106.445305,-231.994614,-38.696289,2.0,5.0,-38.0
217561.0,0.171143,0.003662,-0.636108,-70.251465,24.902342,-44.738766,2.0,5.0,-38.0
217593.0,-0.605103,-0.958008,1.031494,-43.029781,112.365715,-328.857391,0.0,7.0,-39.0
217625.0,-0.439575,-1.20874,-0.203247,11.474608,-48.278805,68.29834,0.0,7.0,-39.0
217656.0,-0.307495,-0.669189,-0.233887,-33.325195,-8.056641,-23.986814,0.0,7.0,-39.0
217690.0,-0.527344,-1.237061,-0.112427,14.831542,-25.939939,36.987305,1.0,3.0,-36.0
217721.0,-0.321289,-0.913574,-0.099121,10.559081,24.353025,38.208008,1.0,3.0,-36.0
217752.0,-0.395264,-1.198853,-0.036499,53.771969,27.343748,91.064445,1.0,3.0,-36.0
217784.0,-0.502075,-1.235474,-0.332275,84.228508,41.442867,169.189438,4.0,3.0,-37.0
217815.0,-0.166504,-2.887207,0.559204,55.786129,106.933586,185.607895,4.0,3.0,-37.0
217846.0,1.587646,-2.712769,-0.144043,35.827637,37.902832,253.723129,4.0,3.0,-37.0
217878.0,-2.420166,-1.491089,-2.098755,36.682129,37.902832,5.92041,2.0,6.0,-35.0
217915.0,-1.792236,-2.688965,-1.103394,-30.029295,77.697754,-493.835419,2.0,6.0,-35.0
217946.0,0.301514,-3.661621,-1.014648,-66.894531,75.073242,-552.91748,2.0,6.0,-35.0
217981.0,2.931396,-0.407104,0.464966,-26.489256,0.488281,-415.344208,10.0,14.0,-33.0
218013.0,3.93457,1.4021,1.216675,-78.735352,11.291503,-250.671371,10.0,14.0,-33.0
218044.0,3.983276,2.63147,1.220703,-23.925779,-35.766602,93.933098,10.0,14.0,-33.0
218077.0,3.182495,1.512817,0.696167,-16.784668,29.724119,415.771454,11.0,10.0,-34.0
218108.0,0.331665,-1.762329,0.129639,35.766602,119.445793,576.538086,11.0,10.0,-34.0
218139.0,-1.959717,-3.957642,-1.645874,53.405758,-128.417969,283.447266,11.0,10.0,-34.0
218171.0,-3.13208,-0.322266,-1.626953,-54.13818,-382.324188,72.44873,2.0,-1.0,-35.0
218203.0,-0.938477,-3.723755,-0.289063,39.550781,203.30809,-157.043457,2.0,-1.0,-35.0
218234.0,2.83252,2.719849,-1.668823,-249.328598,163.940414,-87.402336,2.0,-1.0,-35.0
218266.0,1.673218,-2.717163,-1.811157,174.377426,-369.140594,194.152817,0.0,1.0,-39.0
218298.0,-1.579224,-0.348755,1.153442,-87.463371,223.754868,-456.970184,0.0,1.0,-39.0
218330.0,-0.055542,-1.115601,-0.392822,57.739254,14.709472,192.810043,0.0,1.0,-39.0
218364.0,-0.409546,-0.782227,-0.040161,-47.668453,1.647949,-100.097649,0.0,6.0,-37.0
218395.0,-0.36377,-1.168823,-0.163574,17.883301,11.779784,20.507811,0.0,6.0,-37.0
218430.0,-0.463135,-0.851318,-0.097168,-5.676269,24.780272,-15.258788,0.0,6.0,-37.0
218463.0,-0.328857,-0.900146,0.016479,-3.601074,1.525879,9.765625,2.0,5.0,-35.0
218494.0,-0.303711,-0.873535,-0.217285,4.638672,-17.883301,14.343261,2.0,5.0,-35.0
218526.0,-0.366211,-0.92334,-0.08252,16.418457,1.220703,23.498533,2.0,5.0,-35.0
218558.0,-0.312744,-0.946533,-0.132324,13.793944,-5.126953,19.042969,1.0,7.0,-35.0
218590.0,-0.248657,-0.958618,-0.224243,5.249023,-19.714355,16.906738,1.0,7.0,-35.0
218621.0,-0.335083,-0.995972,-0.110229,-7.507324,-7.324218,8.850098,1.0,7.0,-35.0
218653.0,-0.327637,-0.939697,-0.167236,-17.272949,-10.803222,16.235352,4.0,6.0,-33.0
218684.0,-0.238892,-1.000122,-0.133179,-15.441894,-6.530761,18.554687,4.0,6.0,-33.0
218715.0,-0.28833,-0.893677,-0.068481,-6.530761,-16.418457,14.09912,4.0,6.0,-33.0
218748.0,-0.339966,-0.952637,-0.088379,-3.234863,-23.010252,8.850098,0.0,4.0,-31.0
218780.0,-0.285645,-0.978394,-0.146973,-3.845215,-1.831055,13.061522,0.0,4.0,-31.0
218811.0,-0.207275,-0.981323,-0.140381,0.854492,1.037598,6.530761,0.0,4.0,-31.0
218844.0,-0.293701,-0.937988,-0.019531,5.737304,-8.605957,2.380371,1.0,1.0,-33.0
218875.0,-0.277588,-0.96582,-0.142944,5.065917,-8.605957,2.624511,1.0,1.0,-33.0
218906.0,-0.222534,-0.963257,-0.168335,8.972168,-18.859863,12.573241,1.0,1.0,-33.0
218937.0,-0.250732,-0.977051,-0.156372,8.117676,-17.089844,9.277344,1.0,1.0,-33.0
218969.0,-0.271362,-0.945312,-0.119019,1.342773,-17.211914,4.089355,-2.0,0.0,-33.0
219001.0,-0.199585,-0.94043,-0.172974,5.432128,-20.507811,10.375976,-2.0,0.0,-33.0
219032.0,-0.193237,-0.984863,-0.192627,6.835937,-30.639647,14.831542,-2.0,0.0,-33.0
219064.0,-0.236694,-0.980591,-0.161865,1.281738,-30.944822,13.305663,1.0,2.0,-39.0
219095.0,-0.235229,-0.992676,-0.178589,-3.784179,-26.611326,10.253905,1.0,2.0,-39.0
219126.0,-0.254395,-0.965698,-0.137207,-7.019042,-19.897461,11.352538,1.0,2.0,-39.0
219159.0,-0.185303,-0.948242,-0.163086,-6.103515,-20.26367,16.662598,1.0,-1.0,-33.0
219190.0,-0.19519,-0.979004,-0.13562,1.464844,-27.221678,24.414061,1.0,-1.0,-33.0
219224.0,-0.219482,-0.975098,-0.12085,4.455566,-31.249998,30.883787,1.0,-1.0,-33.0
219257.0,-0.120605,-0.969727,-0.154297,9.765625,-24.108885,38.024902,0.0,-2.0,-37.0
219289.0,-0.045044,-0.971802,-0.230591,13.488769,-31.005857,34.973145,0.0,-2.0,-37.0
219321.0,-0.11438,-1.028442,-0.148437,8.850098,-41.870113,24.780272,0.0,-2.0,-37.0
219353.0,-0.120483,-1.009033,-0.206421,2.929687,-46.32568,23.498533,1.0,-5.0,-39.0
219385.0,-0.102417,-1.007202,-0.208862,2.685547,-50.720211,32.531738,1.0,-5.0,-39.0
219417.0,-0.116821,-0.971191,-0.178101,1.220703,-51.391598,51.208492,1.0,-5.0,-39.0
219450.0,-0.021606,-0.957397,-0.225342,7.324218,-37.719727,68.115234,2.0,-13.0,-37.0
219482.0,0.1521,-0.982178,-0.251221,7.263183,-38.269043,64.63623,2.0,-13.0,-37.0
219513.0,-0.035767,-0.972046,-0.172852,0.366211,-43.945309,73.913574,2.0,-13.0,-37.0
219545.0,0.176025,-1.008423,-0.167725,4.882812,-27.832029,76.35498,3.0,-13.0,-34.0
219577.0,0.138306,-0.97998,-0.186279,4.882812,-29.541014,69.396973,3.0,-13.0,-34.0
219608.0,0.21875,-0.92749,-0.206909,7.8125,-15.686034,66.040039,3.0,-13.0,-34.0
219640.0,0.265137,-0.953491,-0.20105,11.718749,-19.592285,68.603516,4.0,-14.0,-35.0
219671.0,0.285522,-0.940796,-0.27417,6.958007,-24.597166,76.965332,4.0,-14.0,-35.0
219702.0,0.323486,-0.933716,-0.244019,-1.098633,-28.564451,84.228508,4.0,-14.0,-35.0
219734.0,0.443115,-1.119751,-0.167847,-10.986327,-18.310547,84.106438,8.0,-16.0,-36.0
219765.0,0.297119,-0.734253,-0.131958,-15.258788,23.925779,44.860836,8.0,-16.0,-36.0
219796.0,0.542725,-0.934204,-0.154297,6.591796,23.620604,47.912594,8.0,-16.0,-36.0
219828.0,0.694946,-0.96582,-0.057007,-8.422852,39.672852,44.067379,5.0,-14.0,-39.0
219860.0,0.559082,-0.752197,-0.232788,-13.122558,-5.737304,25.268553,5.0,-14.0,-39.0
219895.0,0.932251,-0.746948,-0.067383,-44.616695,-9.033203,40.283199,5.0,-14.0,-39.0
219927.0,0.67627,-0.843262,-0.136353,-29.541014,28.991697,37.597656,7.0,-14.0,-39.0
219959.0,0.708374,-0.587646,-0.067383,-46.691891,6.408691,36.376953,7.0,-14.0,-39.0
219990.0,0.644043,-0.561523,-0.102783,-23.376463,-0.732422,37.475586,7.0,-14.0,-39.0
220022.0,0.570435,-0.839233,-0.15271,-13.85498,-8.850098,49.682613,8.0,-13.0,-33.0
220053.0,0.621582,-0.961182,-0.215698,-13.122558,-21.789549,44.799801,8.0,-13.0,-33.0
220084.0,0.651611,-0.919556,-0.199463,-12.695312,-25.024412,38.696289,8.0,-13.0,-33.0
220116.0,0.462036,-0.965332,-0.129395,-12.512206,-16.052246,54.809566,8.0,-13.0,-33.0
220149.0,0.458008,-0.803589,-0.143799,-18.066406,-8.178711,38.513184,5.0,-16.0,-31.0
220182.0,0.428711,-0.713501,-0.135864,-11.047362,-25.573729,24.902342,5.0,-16.0,-31.0
220213.0,0.34375,-0.773682,-0.126587,-4.943848,-42.114254,14.831542,5.0,-16.0,-31.0
220245.0,0.301514,-0.772461,-0.081543,-9.94873,-12.756347,-5.92041,4.0,-19.0,-37.0
220277.0,0.472168,-0.664795,-0.04248,-10.0708,19.65332,-1.098633,4.0,-19.0,-37.0
220308.0,0.528198,-0.763306,-0.043701,-2.441406,-5.432128,-19.714355,4.0,-19.0,-37.0
220341.0,0.659058,-0.834961,0.042603,-13.000487,-12.939452,-27.587889,5.0,-16.0,-34.0
220373.0,1.035278,-0.983398,-0.090088,-20.202635,26.000975,46.32568,5.0,-16.0,-34.0
220407.0,0.47644,-0.727661,-0.294434,-29.907225,-31.799314,-70.800781,5.0,-16.0,-34.0
220440.0,0.491211,-0.924805,-0.191895,12.20703,-43.395992,31.066893,2.0,-18.0,-35.0
220471.0,0.420166,-0.947998,0.00415,-15.624999,25.634764,-7.873535,2.0,-18.0,-35.0
220502.0,0.712646,-0.706299,0.042725,-15.747069,24.902342,1.525879,2.0,-18.0,-35.0
220534.0,0.63208,-0.814087,0.011963,0.549316,10.31494,2.624511,1.0,-15.0,-36.0
220566.0,0.636719,-0.752563,0.018799,-6.103515,8.300781,-2.746582,1.0,-15.0,-36.0
220597.0,0.67627,-0.770386,-0.038696,-2.990722,8.789063,2.258301,1.0,-15.0,-36.0
220629.0,0.704712,-0.799927,-0.041016,0.427246,-8.544922,-10.681151,-2.0,-14.0,-29.0
220660.0,0.584839,-0.803833,0.002686,5.065917,-13.000487,-8.850098,-2.0,-14.0,-29.0
220691.0,0.593628,-0.827148,0.00415,2.01416,-4.943848,-5.615234,-2.0,-14.0,-29.0
220723.0,0.609619,-0.831177,-0.000366,1.831055,-6.896972,-3.784179,5.0,-18.0,-33.0
220755.0,0.644043,-0.768921,-0.017456,-0.366211,-9.399414,-4.516602,5.0,-18.0,-33.0
220789.0,0.609619,-0.782837,-0.020142,2.13623,-3.723144,-5.432128,5.0,-18.0,-33.0
220821.0,0.537231,-0.835449,0.046387,4.638672,10.131835,-1.89209,2.0,-19.0,-33.0
220852.0,0.603882,-0.815796,-0.025391,8.483887,20.874022,3.295898,2.0,-19.0,-33.0
220883.0,0.687256,-0.820557,-0.06189,9.094238,11.169433,4.516602,2.0,-19.0,-33.0
220915.0,0.656128,-0.796021,-0.020752,5.310058,-5.371093,-0.915527,5.0,-16.0,-34.0
220946.0,0.621338,-0.795654,-0.029785,5.92041,-18.737793,-1.281738,5.0,-16.0,-34.0
220977.0,0.597656,-0.819702,-0.03186,5.310058,-14.770507,0.427246,5.0,-16.0,-34.0
221010.0,0.57959,-0.824341,-0.039551,-0.549316,0.366211,-2.075195,2.0,-16.0,-35.0
221042.0,0.6427,-0.790527,-0.034546,-5.737304,8.789063,-1.159668,2.0,-16.0,-35.0
221075.0,0.639771,-0.799438,-0.028076,-5.249023,-0.427246,-4.943848,2.0,-16.0,-35.0
221109.0,0.61792,-0.810425,-0.018799,-4.455566,-5.737304,-5.310058,0.0,-19.0,-37.0
221141.0,0.601562,-0.813599,-0.00769,-3.051758,-5.859375,-2.990722,0.0,-19.0,-37.0
221173.0,0.613037,-0.816772,-0.007935,-2.624511,-6.408691,-1.770019,0.0,-19.0,-37.0
221205.0,0.620239,-0.802124,0.001465,-0.305176,-9.460449,-1.831055,2.0,-18.0,-37.0
221237.0,0.580444,-0.82666,0.006348,1.220703,-7.751464,-1.281738,2.0,-18.0,-37.0
221269.0,0.592285,-0.807129,-0.009155,0.610352,0.061035,0.549316,2.0,-18.0,-37.0
221301.0,0.614136,-0.817383,-0.014648,0.183105,1.586914,1.159668,1.0,-20.0,-35.0
221332.0,0.600586,-0.817505,-0.010498,-1.953125,0.915527,1.098633,1.0,-20.0,-35.0
221363.0,0.61084,-0.812012,-0.018677,-2.624511,2.319336,1.708984,1.0,-20.0,-35.0
221395.0,0.619019,-0.811768,-0.005737,-4.089355,2.685547,1.403808,2.0,-16.0,-32.0
221426.0,0.61853,-0.804565,-0.005371,-2.685547,1.220703,0.0,2.0,-16.0,-32.0
221458.0,0.620972,-0.807007,0.005127,-1.403808,-0.671387,-0.732422,2.0,-16.0,-32.0
221489.0,0.601318,-0.817505,-0.001587,-1.159668,-1.586914,-0.793457,2.0,-16.0,-32.0
221522.0,0.615723,-0.80896,-0.00708,-0.366211,-0.488281,1.098633,1.0,-15.0,-35.0
221553.0,0.616333,-0.80896,0.00354,0.305176,-0.488281,-0.12207,1.0,-15.0,-35.0
221584.0,0.611938,-0.801758,-0.006958,1.098633,-1.586914,-0.610352,1.0,-15.0,-35.0
221617.0,0.620972,-0.816406,-0.009521,-0.12207,-2.01416,-1.037598,2.0,-16.0,-36.0
221650.0,0.623413,-0.80835,-0.019409,-0.549316,-3.295898,-2.258301,2.0,-16.0,-36.0
221681.0,0.615479,-0.812134,-0.001709,-0.549316,-6.774902,-2.13623,2.0,-16.0,-36.0
221713.0,0.593872,-0.817993,0.001343,-1.586914,-7.263183,-2.807617,1.0,-18.0,-33.0
221744.0,0.602905,-0.81543,0.00415,-3.295898,-1.647949,-0.610352,1.0,-18.0,-33.0
221775.0,0.613892,-0.812622,0.00354,-3.173828,-2.746582,-1.525879,1.0,-18.0,-33.0
221807.0,0.60498,-0.812622,0.019165,-1.89209,-3.845215,-1.403808,2.0,-18.0,-35.0
221839.0,0.598511,-0.812988,0.022339,-0.915527,-1.831055,-1.342773,2.0,-18.0,-35.0
221871.0,0.601196,-0.817261,0.013184,0.549316,0.12207,-0.183105,2.0,-18.0,-35.0
221903.0,0.602539,-0.813232,0.018433,1.831055,0.061035,0.183105,1.0,-17.0,-34.0
221935.0,0.602295,-0.815186,0.017334,4.150391,0.854492,0.610352,1.0,-17.0,-34.0
221966.0,0.600586,-0.815552,0.009155,5.187988,1.708984,0.915527,1.0,-17.0,-34.0
221998.0,0.601929,-0.816284,0.005005,5.554199,2.13623,1.464844,6.0,-18.0,-32.0
222030.0,0.611572,-0.810913,-0.005493,5.554199,2.990722,1.89209,6.0,-18.0,-32.0
222061.0,0.615479,-0.814819,-0.010986,5.493164,2.380371,1.464844,6.0,-18.0,-32.0
222093.0,0.607056,-0.817383,-0.013428,3.90625,0.793457,0.976562,1.0,-15.0,-37.0
222125.0,0.605469,-0.810791,-0.010498,3.112793,2.868652,1.159668,1.0,-15.0,-37.0
222157.0,0.602295,-0.81665,-0.01001,2.563476,3.479004,1.831055,1.0,-15.0,-37.0
222189.0,0.609619,-0.809814,-0.016968,2.563476,3.90625,2.13623,0.0,-19.0,-31.0
222221.0,0.623047,-0.809326,-0.023071,2.441406,3.540039,1.525879,0.0,-19.0,-31.0
222252.0,0.609863,-0.80896,-0.015869,2.685547,1.098633,0.488281,0.0,-19.0,-31.0
222285.0,0.61145,-0.809204,-0.019409,3.173828,0.915527,1.159668,2.0,-19.0,-32.0
222316.0,0.610352,-0.812378,-0.027222,2.929687,1.647949,0.976562,2.0,-19.0,-32.0
222348.0,0.612671,-0.80835,-0.024902,2.502441,1.342773,0.671387,2.0,-19.0,-32.0
222382.0,0.610596,-0.811279,-0.026245,2.380371,1.037598,0.671387,4.0,-19.0,-35.0
222414.0,0.610352,-0.806885,-0.030151,2.319336,2.380371,0.976562,4.0,-19.0,-35.0
222445.0,0.615234,-0.809326,-0.029175,2.319336,2.502441,0.854492,4.0,-19.0,-35.0
222478.0,0.620117,-0.809448,-0.040039,2.075195,1.098633,0.549316,2.0,-18.0,-32.0
222509.0,0.61499,-0.807861,-0.033081,1.708984,-0.061035,0.427246,2.0,-18.0,-32.0
222541.0,0.613037,-0.809082,-0.036987,1.342773,-0.488281,0.366211,2.0,-18.0,-32.0
222572.0,0.611206,-0.808594,-0.035889,0.732422,0.915527,0.488281,2.0,-18.0,-32.0
222604.0,0.615112,-0.807373,-0.03479,0.305176,1.281738,0.366211,2.0,-19.0,-35.0
222635.0,0.614136,-0.809204,-0.035522,0.183105,1.342773,0.244141,2.0,-19.0,-35.0
222668.0,0.620361,-0.80542,-0.038208,-0.183105,0.488281,0.244141,2.0,-19.0,-35.0
222701.0,0.613403,-0.809326,-0.034424,-0.183105,-0.549316,-0.183105,4.0,-19.0,-34.0
222732.0,0.613037,-0.80542,-0.035522,-0.12207,-0.793457,-0.061035,4.0,-19.0,-34.0
222764.0,0.613281,-0.807495,-0.040405,-0.305176,-0.061035,0.244141,4.0,-19.0,-34.0
222796.0,0.612671,-0.806885,-0.033203,-0.488281,0.610352,-0.12207,2.0,-19.0,-33.0
222828.0,0.617676,-0.806763,-0.037598,-0.183105,0.366211,0.244141,2.0,-19.0,-33.0
222860.0,0.61438,-0.806763,-0.035278,-0.305176,-0.061035,-0.12207,2.0,-19.0,-33.0
222892.0,0.616333,-0.807983,-0.039429,-0.183105,-0.671387,-0.12207,5.0,-18.0,-35.0
222923.0,0.611572,-0.807129,-0.032349,-0.488281,-0.305176,-0.183105,5.0,-18.0,-35.0
222954.0,0.610962,-0.807983,-0.036499,-0.305176,0.12207,0.12207,5.0,-18.0,-35.0
222987.0,0.616333,-0.806763,-0.036499,-0.610352,0.427246,0.183105,4.0,-17.0,-35.0
223018.0,0.610596,-0.805542,-0.031982,-0.183105,0.549316,0.305176,4.0,-17.0,-35.0
223050.0,0.61438,-0.810425,-0.03772,0.12207,0.732422,0.549316,4.0,-17.0,-35.0
223082.0,0.619385,-0.804321,-0.038574,-0.12207,0.244141,0.12207,2.0,-19.0,-34.0
223114.0,0.613647,-0.808838,-0.034668,-0.305176,-0.427246,0.0,2.0,-19.0,-34.0
223146.0,0.61438,-0.807739,-0.041138,-0.244141,-0.366211,0.0,2.0,-19.0,-34.0
223178.0,0.611694,-0.808472,-0.036011,-0.549316,0.488281,0.183105,4.0,-18.0,-31.0
223209.0,0.61438,-0.807739,-0.03772,-0.854492,0.671387,0.12207,4.0,-18.0,-31.0
223241.0,0.618164,-0.807617,-0.039063,-1.037598,-0.244141,0.12207,4.0,-18.0,-31.0
223273.0,0.615601,-0.807617,-0.038574,-1.281738,-1.098633,-0.366211,3.0,-20.0,-39.0
223304.0,0.616089,-0.806274,-0.036499,-1.647949,-1.220703,-0.427246,3.0,-20.0,-39.0
223335.0,0.613525,-0.809692,-0.039185,-2.13623,-1.281738,-0.427246,3.0,-20.0,-39.0
223369.0,0.61377,-0.808105,-0.033813,-2.624511,-1.159668,-0.366211,2.0,-20.0,-41.0
223401.0,0.612061,-0.808105,-0.032471,-2.929687,-0.549316,-0.671387,2.0,-20.0,-41.0
223434.0,0.613159,-0.809204,-0.028198,-2.990722,-0.610352,-0.671387,2.0,-20.0,-41.0
223468.0,0.617065,-0.80835,-0.028442,-2.929687,-1.464844,-0.732422,3.0,-18.0,-35.0
223500.0,0.608643,-0.809814,-0.022339,-2.746582,-1.586914,-0.854492,3.0,-18.0,-35.0
223531.0,0.612427,-0.810425,-0.026611,-2.197266,-1.586914,-0.244141,3.0,-18.0,-35.0
223564.0,0.609985,-0.808838,-0.021118,-2.319336,-1.281738,-0.549316,1.0,-16.0,-31.0
223595.0,0.611938,-0.812256,-0.02124,-1.953125,-1.281738,-0.305176,1.0,-16.0,-31.0
223627.0,0.612549,-0.808228,-0.021118,-2.319336,-1.220703,-0.610352,1.0,-16.0,-31.0
223661.0,0.609985,-0.811523,-0.020752,-2.258301,-0.915527,-0.488281,0.0,-19.0,-35.0
223694.0,0.611572,-0.808594,-0.016479,-2.197266,-0.976562,-0.610352,0.0,-19.0,-35.0
223727.0,0.608643,-0.812134,-0.016479,-1.89209,-1.342773,-0.488281,0.0,-19.0,-35.0
223761.0,0.611572,-0.810791,-0.016724,-1.953125,-1.403808,-0.366211,3.0,-18.0,-33.0
223793.0,0.606567,-0.813354,-0.014404,-2.01416,-1.037598,-0.244141,3.0,-18.0,-33.0
223826.0,0.61084,-0.811768,-0.013428,-1.770019,-1.037598,-0.061035,3.0,-18.0,-33.0
223858.0,0.610107,-0.806641,-0.012329,-1.89209,-0.366211,-0.061035,4.0,-22.0,-32.0
223890.0,0.612183,-0.816895,-0.01416,-1.708984,-0.549316,-0.305176,4.0,-22.0,-32.0
223923.0,0.608154,-0.80835,-0.008179,-1.464844,-0.183105,-0.244141,4.0,-22.0,-32.0
223957.0,0.612549,-0.812866,-0.014526,-0.976562,-0.12207,0.061035,3.0,-17.0,-35.0
223990.0,0.607056,-0.812012,-0.006592,-0.915527,-0.244141,-0.183105,3.0,-17.0,-35.0
224024.0,0.611694,-0.809204,-0.010742,-0.244141,0.244141,0.183105,3.0,-17.0,-35.0
224056.0,0.608643,-0.813965,-0.009277,0.0,0.12207,0.061035,4.0,-19.0,-35.0
224088.0,0.603882,-0.81311,-0.009521,0.12207,0.854492,0.305176,4.0,-19.0,-35.0
224123.0,0.612671,-0.810547,-0.015503,0.183105,0.610352,0.671387,4.0,-19.0,-35.0
224160.0,0.609985,-0.813477,-0.015259,-0.061035,-0.183105,0.366211,2.0,-20.0,-33.0
224195.0,0.608521,-0.80957,-0.01355,-0.183105,0.854492,0.244141,2.0,-20.0,-33.0
224232.0,0.612793,-0.814209,-0.011963,-0.061035,0.732422,0.244141,2.0,-20.0,-33.0
224268.0,0.614868,-0.810059,-0.016113,-0.12207,0.488281,0.244141,4.0,-20.0,-31.0
224304.0,0.608765,-0.812744,-0.012451,-0.12207,0.12207,-0.061035,4.0,-20.0,-31.0
224343.0,0.608887,-0.812866,-0.015991,-0.12207,-0.061035,0.183105,2.0,-18.0,-32.0
224381.0,0.610718,-0.811401,-0.012695,-0.427246,0.183105,0.061035,2.0,-18.0,-32.0
224415.0,0.611816,-0.811646,-0.014038,-0.427246,0.12207,0.244141,2.0,-18.0,-32.0
224449.0,0.609497,-0.8125,-0.012817,-0.793457,0.244141,0.061035,4.0,-18.0,-31.0
224482.0,0.615723,-0.810547,-0.015381,-0.915527,-0.427246,0.12207,4.0,-18.0,-31.0
224514.0,0.609131,-0.811401,-0.012207,-1.220703,-0.610352,-0.305176,4.0,-18.0,-31.0
224546.0,0.608154,-0.812134,-0.012817,-1.403808,-0.366211,-0.12207,1.0,-19.0,-31.0
224578.0,0.609741,-0.811646,-0.01001,-1.159668,0.549316,-0.12207,1.0,-19.0,-31.0
224610.0,0.610718,-0.811279,-0.009277,-0.976562,0.244141,0.0,1.0,-19.0,-31.0
224642.0,0.612183,-0.811157,-0.013306,-0.915527,-0.244141,-0.061035,2.0,-20.0,-35.0
224673.0,0.606934,-0.811035,-0.006958,-1.159668,-0.915527,-0.183105,2.0,-20.0,-35.0
224704.0,0.611572,-0.813721,-0.014893,-0.915527,-1.037598,0.12207,2.0,-20.0,-35.0
224736.0,0.608887,-0.813843,-0.013062,-1.708984,-0.305176,0.061035,1.0,-19.0,-33.0
224769.0,0.600952,-0.811157,-0.010254,-2.624511,1.281738,0.732422,1.0,-19.0,-33.0
224802.0,0.619385,-0.811035,-0.010498,-3.601074,2.868652,1.403808,1.0,-19.0,-33.0
224834.0,0.61792,-0.807739,-0.010986,-3.90625,0.793457,0.0,3.0,-17.0,-35.0
224868.0,0.614624,-0.814209,-0.007324,-4.943848,-0.976562,-0.366211,3.0,-17.0,-35.0
224901.0,0.613647,-0.810059,-0.006226,-5.187988,-1.953125,-1.037598,3.0,-17.0,-35.0
224934.0,0.612183,-0.81311,-0.001587,-5.554199,-2.441406,-1.037598,0.0,-18.0,-36.0
224966.0,0.606201,-0.812622,0.006226,-5.004883,-2.502441,-0.854492,0.0,-18.0,-36.0
224999.0,0.604492,-0.808228,0.00769,-4.943848,-1.098633,-0.549316,0.0,-18.0,-36.0
225031.0,0.596558,-0.814453,0.009766,-4.638672,0.793457,0.488281,2.0,-18.0,-30.0
225067.0,0.592651,-0.812256,0.013428,-4.333496,7.507324,3.051758,2.0,-18.0,-30.0
225098.0,0.616333,-0.815796,0.004395,-3.356933,9.460449,3.784179,2.0,-18.0,-30.0
225130.0,0.62439,-0.803711,0.011841,-2.380371,7.202148,1.037598,3.0,-18.0,-34.0
225162.0,0.631836,-0.8125,0.002075,-0.915527,5.981445,0.12207,3.0,-18.0,-34.0
225196.0,0.625488,-0.804687,-0.002441,-1.098633,-2.319336,-1.281738,3.0,-18.0,-34.0
225230.0,0.600464,-0.8125,0.00647,-2.319336,-0.549316,-1.159668,1.0,-18.0,-39.0
225262.0,0.629639,-0.810669,0.003906,-1.647949,-0.976562,-0.793457,1.0,-18.0,-39.0
225294.0,0.641479,-0.805664,-0.006714,-2.563476,-7.629394,-2.929687,1.0,-18.0,-39.0
225327.0,0.632568,-0.80127,0.013916,-2.258301,-16.418457,-6.774902,3.0,-19.0,-35.0
225359.0,0.585571,-0.82312,0.023804,-1.586914,-16.967773,-6.103515,3.0,-19.0,-35.0
225390.0,0.594116,-0.817871,0.027588,-2.197266,-10.620116,-3.90625,3.0,-19.0,-35.0
225423.0,0.592163,-0.818481,0.041992,-1.220703,-8.056641,-3.845215,1.0,-17.0,-33.0
225455.0,0.59314,-0.821777,0.034668,0.12207,-6.835937,-2.990722,1.0,-17.0,-33.0
225486.0,0.568237,-0.825684,0.042969,-0.366211,-3.051758,-0.732422,1.0,-17.0,-33.0
225520.0,0.594238,-0.828857,0.022461,-0.976562,3.540039,2.01416,1.0,-17.0,-33.0
225553.0,0.611206,-0.819214,0.036987,-1.525879,4.577637,1.770019,0.0,-18.0,-35.0
225586.0,0.606567,-0.818237,0.022827,-1.281738,-0.671387,0.061035,0.0,-18.0,-35.0
225618.0,0.603394,-0.820923,0.029785,-2.319336,0.244141,-0.610352,0.0,-18.0,-35.0
225651.0,0.606812,-0.818359,0.032227,-2.441406,-1.89209,-1.464844,1.0,-20.0,-31.0
225683.0,0.590698,-0.821899,0.041504,-1.708984,-1.770019,-1.220703,1.0,-20.0,-31.0
225716.0,0.60498,-0.822266,0.033813,-1.220703,-2.258301,-0.854492,1.0,-20.0,-31.0
225749.0,0.59436,-0.820068,0.044556,-0.915527,-2.380371,-1.586914,2.0,-17.0,-34.0
225781.0,0.583862,-0.82312,0.04187,0.366211,-1.281738,-0.366211,2.0,-17.0,-34.0
225814.0,0.599731,-0.824585,0.038696,0.610352,0.549316,0.976562,2.0,-17.0,-34.0
225846.0,0.601196,-0.820923,0.039063,0.976562,-1.037598,0.12207,1.0,-22.0,-34.0
225878.0,0.601807,-0.821899,0.030884,0.427246,-2.197266,0.0,1.0,-22.0,-34.0
225910.0,0.594238,-0.822021,0.03772,-0.549316,-1.831055,-0.427246,1.0,-22.0,-34.0
225944.0,0.593262,-0.822021,0.037476,-0.671387,-0.061035,-0.305176,2.0,-20.0,-38.0
225975.0,0.60144,-0.822754,0.037598,-1.037598,-0.305176,-0.366211,2.0,-20.0,-38.0
226006.0,0.601318,-0.822876,0.039185,-0.976562,-1.89209,-0.854492,2.0,-20.0,-38.0
226039.0,0.592163,-0.821167,0.043213,-0.854492,-1.953125,-0.732422,0.0,-18.0,-32.0
226071.0,0.597046,-0.828613,0.036621,-1.220703,-1.342773,0.244141,0.0,-18.0,-32.0
226102.0,0.591431,-0.817261,0.047119,-1.403808,0.244141,-0.061035,0.0,-18.0,-32.0
226134.0,0.60022,-0.825562,0.035522,-1.159668,-0.610352,0.061035,1.0,-20.0,-33.0
226165.0,0.598999,-0.823608,0.043213,-1.647949,-1.037598,-0.488281,1.0,-20.0,-33.0
226196.0,0.594116,-0.821045,0.041626,-1.586914,-1.159668,-0.427246,1.0,-20.0,-33.0
226229.0,0.59375,-0.824219,0.049683,-1.220703,-1.525879,-0.305176,0.0,-20.0,-39.0
226260.0,0.598755,-0.821411,0.043579,-1.403808,-1.586914,-0.671387,0.0,-20.0,-39.0
226291.0,0.592651,-0.822754,0.049683,-1.220703,-1.037598,-0.732422,0.0,-20.0,-39.0
226324.0,0.598145,-0.82251,0.045532,-0.549316,-2.13623,-0.488281,0.0,-21.0,-32.0
226355.0,0.587524,-0.825317,0.050415,-0.366211,-1.770019,-0.671387,0.0,-21.0,-32.0
226386.0,0.591919,-0.824585,0.046509,-0.732422,-0.671387,0.0,0.0,-21.0,-32.0
226419.0,0.593872,-0.82605,0.052856,-0.366211,-0.915527,-0.183105,-1.0,-20.0,-34.0
226450.0,0.589966,-0.82373,0.045166,-0.244141,-1.037598,-0.12207,-1.0,-20.0,-34.0
226481.0,0.596802,-0.825806,0.046875,-0.427246,-0.366211,0.244141,-1.0,-20.0,-34.0
226513.0,0.596191,-0.824219,0.050293,-0.671387,-1.647949,-0.610352,-1.0,-19.0,-32.0
226544.0,0.58667,-0.824707,0.049683,-0.732422,-0.732422,-0.244141,-1.0,-19.0,-32.0
226575.0,0.597534,-0.825439,0.045654,-0.976562,-0.549316,-0.244141,-1.0,-19.0,-32.0
226608.0,0.591064,-0.822388,0.052612,-0.732422,-1.220703,-0.488281,1.0,-19.0,-29.0
226639.0,0.591919,-0.824585,0.050781,-0.793457,-1.281738,-0.671387,1.0,-19.0,-29.0
226670.0,0.594482,-0.825317,0.049072,-0.549316,-1.342773,-0.183105,1.0,-19.0,-29.0
226702.0,0.592651,-0.825439,0.051514,-0.915527,-1.708984,-0.732422,1.0,-18.0,-33.0
226733.0,0.591675,-0.826538,0.052124,-0.488281,-2.319336,-0.671387,1.0,-18.0,-33.0
226764.0,0.591431,-0.828125,0.048706,-0.915527,-2.380371,-0.671387,1.0,-18.0,-33.0
226795.0,0.593872,-0.825806,0.053101,-1.831055,-2.441406,-1.098633,1.0,-18.0,-33.0
226827.0,0.591309,-0.826416,0.056885,-1.464844,-2.990722,-1.159668,0.0,-20.0,-36.0
226859.0,0.583374,-0.828979,0.057983,-1.89209,-2.258301,-1.281738,0.0,-20.0,-36.0
226891.0,0.592896,-0.826538,0.06189,-1.708984,-1.770019,-0.793457,0.0,-20.0,-36.0
226924.0,0.582275,-0.826172,0.06665,-1.464844,-2.197266,-1.098633,2.0,-19.0,-27.0
226955.0,0.581665,-0.828247,0.063477,-0.915527,-1.220703,-0.061035,2.0,-19.0,-27.0
226987.0,0.58606,-0.827637,0.065186,-0.671387,-0.915527,0.0,2.0,-19.0,-27.0
227019.0,0.586548,-0.826416,0.062134,-0.488281,-0.854492,0.0,1.0,-20.0,-36.0
227052.0,0.587036,-0.827148,0.065308,-0.427246,-0.732422,-0.183105,1.0,-20.0,-36.0
227086.0,0.587524,-0.828125,0.064209,-0.12207,-0.854492,-0.183105,1.0,-20.0,-36.0
227124.0,0.585815,-0.827271,0.06543,-0.061035,-0.488281,-0.366211,0.0,-21.0,-29.0
227161.0,0.580444,-0.832275,0.065796,-0.183105,-0.12207,0.12207,0.0,-21.0,-29.0
227194.0,0.581177,-0.828491,0.064209,-0.610352,1.403808,0.671387,0.0,-20.0,-33.0
227227.0,0.587769,-0.827515,0.067505,-0.305176,1.831055,1.037598,0.0,-20.0,-33.0
227260.0,0.591919,-0.825928,0.060547,0.305176,0.488281,0.854492,0.0,-20.0,-33.0
227297.0,0.586426,-0.827637,0.062256,0.305176,0.549316,0.488281,0.0,-20.0,-27.0
227331.0,0.590454,-0.826172,0.062256,0.671387,0.732422,0.427246,0.0,-20.0,-27.0
227363.0,0.585571,-0.828979,0.060303,0.732422,0.976562,0.244141,0.0,-20.0,-27.0
227398.0,0.589111,-0.826904,0.060303,0.671387,1.281738,0.549316,1.0,-22.0,-29.0
227431.0,0.593384,-0.82666,0.055054,0.366211,-0.366211,0.12207,1.0,-22.0,-29.0
227464.0,0.583618,-0.828369,0.06189,0.12207,-0.366211,0.12207,1.0,-22.0,-29.0
227499.0,0.587891,-0.828247,0.057373,0.183105,0.305176,0.732422,0.0,-22.0,-33.0
227544.0,0.591064,-0.825317,0.057373,-0.244141,0.915527,0.427246,0.0,-22.0,-33.0
227576.0,0.591553,-0.825684,0.058105,-0.244141,0.915527,0.366211,0.0,-22.0,-33.0
227611.0,0.594849,-0.826904,0.052856,-0.183105,-0.305176,0.0,-1.0,-20.0,-31.0
227644.0,0.591187,-0.826416,0.05603,-0.488281,-0.793457,-0.610352,-1.0,-20.0,-31.0
227679.0,0.590332,-0.827393,0.058472,-0.793457,-1.403808,-0.915527,-1.0,-20.0,-31.0
227715.0,0.587769,-0.826538,0.057983,-1.037598,-1.464844,-0.915527,0.0,-22.0,-37.0
227747.0,0.585571,-0.827148,0.061401,-0.915527,-1.037598,-0.549316,0.0,-22.0,-37.0
227782.0,0.59375,-0.826294,0.057251,-0.549316,-1.342773,-0.793457,0.0,-20.0,-31.0
227818.0,0.588379,-0.830078,0.061279,-0.793457,-2.929687,-1.403808,0.0,-20.0,-31.0
227852.0,0.583374,-0.827637,0.065918,-0.427246,-3.173828,-0.915527,0.0,-20.0,-31.0
227887.0,0.575195,-0.829102,0.072266,-0.488281,-2.502441,-0.671387,0.0,-21.0,-37.0
227919.0,0.578613,-0.830566,0.067627,-0.305176,0.183105,0.305176,0.0,-21.0,-37.0
227952.0,0.58313,-0.828125,0.071777,0.671387,1.708984,0.732422,0.0,-21.0,-37.0
227987.0,0.585815,-0.827148,0.065796,1.953125,-0.183105,0.610352,-2.0,-20.0,-32.0
228019.0,0.582886,-0.828491,0.061646,2.929687,0.366211,0.976562,-2.0,-20.0,-32.0
228051.0,0.58313,-0.827515,0.061401,3.051758,1.281738,1.037598,-2.0,-20.0,-32.0
228087.0,0.582886,-0.8302,0.05542,3.112793,2.868652,1.770019,0.0,-21.0,-33.0
228121.0,0.591309,-0.829346,0.047607,2.502441,3.723144,1.708984,0.0,-21.0,-33.0
228155.0,0.577148,-0.826904,0.048828,1.525879,3.356933,1.89209,0.0,-21.0,-33.0
228188.0,0.570679,-0.834351,0.045654,0.366211,7.507324,3.845215,1.0,-20.0,-31.0
228221.0,0.615845,-0.820679,0.037842,-0.732422,10.620116,3.540039,1.0,-20.0,-31.0
228253.0,0.609009,-0.822632,0.043579,-0.610352,2.929687,0.610352,1.0,-20.0,-31.0
228287.0,0.591431,-0.820679,0.049438,-0.427246,0.549316,-0.610352,2.0,-21.0,-29.0
228321.0,0.599609,-0.82605,0.041382,0.427246,-0.244141,0.183105,2.0,-21.0,-29.0
228354.0,0.596558,-0.824341,0.042114,0.305176,-2.01416,-0.854492,2.0,-21.0,-29.0
228386.0,0.59082,-0.82251,0.046387,0.732422,-2.685547,-0.610352,0.0,-21.0,-35.0
228418.0,0.588257,-0.826416,0.04187,0.305176,-0.854492,-0.732422,0.0,-21.0,-35.0
228450.0,0.594116,-0.827881,0.040771,-0.488281,0.488281,-0.244141,0.0,-21.0,-35.0
228485.0,0.60022,-0.822754,0.03772,-0.915527,-1.831055,-0.976562,0.0,-20.0,-28.0
228519.0,0.591553,-0.828857,0.04541,-1.342773,-3.967285,-1.098633,0.0,-20.0,-28.0
228552.0,0.581055,-0.826416,0.050903,-1.586914,-2.075195,-1.159668,0.0,-20.0,-28.0
228586.0,0.596802,-0.82605,0.045288,-1.953125,-0.12207,-0.12207,2.0,-20.0,-32.0
228619.0,0.598877,-0.824219,0.054199,-1.708984,-2.502441,-1.342773,2.0,-20.0,-32.0
228651.0,0.580811,-0.827515,0.056641,-1.098633,-2.685547,-1.098633,2.0,-20.0,-32.0
228686.0,0.589722,-0.824097,0.051758,-0.732422,-0.793457,0.0,0.0,-21.0,-36.0
228718.0,0.590454,-0.828369,0.054687,-0.671387,-0.732422,-0.427246,0.0,-21.0,-36.0
228751.0,0.580688,-0.824829,0.057007,0.183105,0.12207,0.0,0.0,-21.0,-36.0
228787.0,0.586792,-0.828369,0.052612,0.610352,1.098633,0.671387,1.0,-20.0,-33.0
228819.0,0.593018,-0.825928,0.051514,0.793457,0.610352,0.488281,1.0,-20.0,-33.0
228851.0,0.588867,-0.826538,0.052246,1.281738,0.183105,0.488281,1.0,-20.0,-33.0
228884.0,0.58728,-0.828613,0.047241,1.464844,0.854492,0.671387,1.0,-19.0,-35.0
228916.0,0.591675,-0.825562,0.047852,0.854492,1.464844,0.671387,1.0,-19.0,-35.0
228947.0,0.594238,-0.827759,0.043457,0.732422,0.427246,0.732422,1.0,-19.0,-35.0
228979.0,0.587402,-0.827148,0.044067,0.366211,0.610352,0.366211,2.0,-21.0,-33.0
229011.0,0.589111,-0.825439,0.043701,0.0,1.525879,0.427246,2.0,-21.0,-33.0
229042.0,0.588623,-0.823853,0.045654,-0.305176,1.708984,0.549316,2.0,-21.0,-33.0
229074.0,0.589355,-0.825806,0.042358,-0.366211,2.624511,1.403808,2.0,-20.0,-30.0
229105.0,0.593994,-0.827026,0.041382,-0.427246,2.502441,0.976562,2.0,-20.0,-30.0
229137.0,0.600342,-0.825928,0.038208,-1.342773,0.366211,0.793457,2.0,-20.0,-30.0
229170.0,0.598022,-0.827271,0.040039,-2.380371,-0.915527,-0.305176,0.0,-21.0,-35.0
229202.0,0.596436,-0.825928,0.040771,-2.868652,-2.13623,-0.671387,0.0,-21.0,-35.0
229233.0,0.591919,-0.824951,0.047241,-3.295898,-1.342773,-1.525879,0.0,-21.0,-35.0
229265.0,0.582153,-0.826782,0.057495,-3.051758,-0.244141,-1.098633,1.0,-21.0,-33.0
229297.0,0.592163,-0.82373,0.054199,-1.953125,0.305176,-0.427246,1.0,-21.0,-33.0
229328.0,0.588867,-0.825928,0.053711,-1.037598,0.12207,0.0,1.0,-21.0,-33.0
229361.0,0.584595,-0.825439,0.063232,0.12207,0.0,0.061035,0.0,-21.0,-36.0
229394.0,0.587402,-0.823486,0.054199,1.525879,0.610352,1.342773,0.0,-21.0,-36.0
229425.0,0.591064,-0.825439,0.047363,1.708984,2.197266,1.403808,0.0,-21.0,-36.0
229457.0,0.591919,-0.825073,0.046143,1.159668,1.831055,1.525879,2.0,-19.0,-33.0
229488.0,0.586914,-0.827271,0.047241,1.159668,2.075195,1.770019,2.0,-19.0,-33.0
229519.0,0.599365,-0.825684,0.039185,0.671387,2.563476,1.89209,2.0,-19.0,-33.0
229551.0,0.58667,-0.828125,0.043213,-0.244141,4.211426,1.770019,2.0,-21.0,-30.0
229584.0,0.61084,-0.819458,0.033813,-0.488281,4.211426,2.929687,2.0,-21.0,-30.0
229616.0,0.599854,-0.824951,0.041016,-0.915527,0.671387,1.159668,2.0,-21.0,-30.0
229650.0,0.582275,-0.818604,0.048584,0.244141,3.295898,1.89209,1.0,-20.0,-35.0
229682.0,0.59375,-0.82312,0.043091,1.098633,5.981445,3.112793,1.0,-20.0,-35.0
229713.0,0.603394,-0.818115,0.033569,2.502441,7.019042,3.540039,1.0,-20.0,-35.0
229744.0,0.619995,-0.815308,0.036133,3.601074,3.234863,2.319336,1.0,-20.0,-35.0
229776.0,0.616089,-0.814209,0.03186,5.615234,-3.356933,1.159668,1.0,-21.0,-31.0
229807.0,0.583496,-0.817627,0.036011,6.408691,-1.037598,1.525879,1.0,-21.0,-31.0
229838.0,0.59021,-0.810791,0.036621,7.690429,4.821777,2.929687,1.0,-21.0,-31.0
229870.0,0.606812,-0.815674,0.023071,8.789063,5.249023,3.417969,2.0,-18.0,-34.0
229901.0,0.599243,-0.812988,0.017334,10.131835,5.859375,2.990722,2.0,-18.0,-34.0
229935.0,0.608521,-0.807495,0.017822,13.244628,7.019042,3.295898,2.0,-18.0,-34.0
229967.0,0.613525,-0.810913,0.002563,15.319823,3.845215,3.601074,4.0,-18.0,-34.0
229999.0,0.606689,-0.810181,-0.010986,15.930175,3.051758,3.723144,4.0,-18.0,-34.0
230030.0,0.619263,-0.807983,-0.029053,14.709472,3.540039,3.967285,4.0,-18.0,-34.0
230063.0,0.619263,-0.815308,-0.049805,13.549804,2.868652,3.967285,4.0,-20.0,-33.0
230094.0,0.625,-0.808105,-0.043457,9.765625,2.13623,2.258301,4.0,-20.0,-33.0
230125.0,0.610596,-0.801025,-0.038086,8.300781,2.929687,1.770019,4.0,-20.0,-33.0
230157.0,0.611084,-0.807861,-0.047119,6.958007,5.371093,2.624511,5.0,-20.0,-38.0
230189.0,0.617065,-0.812134,-0.050903,5.493164,6.103515,2.075195,5.0,-20.0,-38.0
230220.0,0.631958,-0.801758,-0.062744,4.089355,4.150391,2.075195,5.0,-20.0,-38.0
230252.0,0.629639,-0.802856,-0.063599,3.479004,0.732422,1.89209,5.0,-18.0,-36.0
230283.0,0.617065,-0.805298,-0.062744,0.0,-0.793457,0.732422,5.0,-18.0,-36.0
230314.0,0.620361,-0.79895,-0.065308,-2.13623,0.793457,1.098633,5.0,-18.0,-36.0
230346.0,0.616577,-0.80835,-0.054932,-3.90625,2.258301,1.159668,7.0,-19.0,-39.0
230377.0,0.623291,-0.800537,-0.055908,-5.126953,2.319336,0.915527,7.0,-19.0,-39.0
230408.0,0.633545,-0.802612,-0.055298,-5.249023,0.732422,0.732422,7.0,-19.0,-39.0
230440.0,0.631104,-0.79541,-0.047485,-5.615234,-2.807617,-0.732422,5.0,-19.0,-35.0
230471.0,0.62085,-0.796631,-0.043579,-5.615234,-3.662109,-1.464844,5.0,-19.0,-35.0
230502.0,0.61731,-0.806885,-0.046875,-5.615234,-3.356933,-1.159668,5.0,-19.0,-35.0
230535.0,0.618408,-0.796387,-0.034058,-5.615234,-2.075195,-1.953125,4.0,-19.0,-34.0
230567.0,0.609497,-0.807251,-0.029419,-5.126953,-0.427246,-0.976562,4.0,-19.0,-34.0
230599.0,0.622803,-0.801514,-0.032715,-4.638672,-0.183105,-0.366211,4.0,-19.0,-34.0
230631.0,0.622192,-0.805664,-0.030396,-3.662109,-2.13623,-0.915527,6.0,-20.0,-30.0
230663.0,0.61377,-0.80249,-0.023926,-3.784179,-2.197266,-1.037598,6.0,-20.0,-30.0
230694.0,0.616821,-0.804565,-0.020874,-3.417969,-1.403808,-0.549316,6.0,-20.0,-30.0
230728.0,0.613159,-0.810425,-0.026855,-3.417969,0.12207,-0.549316,4.0,-20.0,-37.0
230759.0,0.614014,-0.806519,-0.021851,-3.845215,1.159668,0.0,4.0,-20.0,-37.0
230790.0,0.61438,-0.802368,-0.017212,-3.417969,1.525879,0.305176,4.0,-20.0,-37.0
230821.0,0.614258,-0.806885,-0.02124,-3.051758,2.441406,0.610352,4.0,-20.0,-37.0
230853.0,0.625244,-0.800537,-0.023804,-2.746582,2.075195,0.244141,4.0,-19.0,-28.0
230885.0,0.619995,-0.802368,-0.019653,-1.831055,0.12207,-0.183105,4.0,-19.0,-28.0
230917.0,0.608276,-0.80603,-0.017456,-0.976562,-0.488281,-0.061035,4.0,-19.0,-28.0
230949.0,0.612427,-0.804077,-0.014038,0.244141,1.403808,0.854492,3.0,-20.0,-33.0
230981.0,0.61792,-0.805786,-0.019775,1.464844,2.380371,1.098633,3.0,-20.0,-33.0
231013.0,0.626465,-0.802368,-0.022949,2.441406,0.305176,0.671387,3.0,-20.0,-33.0
231045.0,0.626709,-0.803223,-0.02832,1.953125,-1.037598,-0.488281,4.0,-18.0,-38.0
231076.0,0.622803,-0.806152,-0.033936,0.915527,-1.647949,-1.220703,4.0,-18.0,-38.0
231107.0,0.616089,-0.80835,-0.028442,-0.671387,-2.075195,-2.01416,4.0,-18.0,-38.0
231140.0,0.611328,-0.810303,-0.026855,-1.89209,-1.525879,-2.13623,4.0,-19.0,-31.0
231171.0,0.607666,-0.812012,-0.02417,-3.051758,1.037598,-1.098633,4.0,-19.0,-31.0
231202.0,0.61084,-0.809692,-0.022217,-3.479004,1.708984,-0.305176,4.0,-19.0,-31.0
231234.0,0.615112,-0.806641,-0.018921,-3.356933,1.403808,0.244141,2.0,-18.0,-31.0
231267.0,0.619141,-0.806274,-0.018799,-2.868652,0.183105,0.305176,2.0,-18.0,-31.0
231299.0,0.613037,-0.80896,-0.019287,-2.380371,-0.488281,0.183105,2.0,-18.0,-31.0
231331.0,0.616211,-0.802979,-0.017212,-1.953125,-0.061035,0.244141,2.0,-17.0,-33.0
231362.0,0.613892,-0.807983,-0.016235,-1.525879,0.427246,0.183105,2.0,-17.0,-33.0
231393.0,0.609741,-0.806763,-0.011719,-1.464844,1.647949,0.305176,2.0,-17.0,-33.0
231425.0,0.62085,-0.807373,-0.023071,-0.610352,1.708984,0.488281,4.0,-21.0,-29.0
231456.0,0.61377,-0.802979,-0.014893,-0.549316,0.183105,-0.305176,4.0,-21.0,-29.0
231487.0,0.616455,-0.807129,-0.020752,0.061035,-0.061035,0.0,4.0,-21.0,-29.0
231520.0,0.617065,-0.807861,-0.015747,-0.183105,0.244141,-0.12207,4.0,-20.0,-37.0
231552.0,0.61377,-0.807007,-0.021362,0.0,-0.061035,-0.12207,4.0,-20.0,-37.0
231585.0,0.61731,-0.80835,-0.020996,-0.793457,0.12207,-0.12207,4.0,-20.0,-37.0
231617.0,0.617676,-0.806396,-0.020508,-1.159668,-0.671387,-0.549316,2.0,-17.0,-33.0
231648.0,0.613403,-0.809692,-0.021118,-1.586914,-0.488281,-0.671387,2.0,-17.0,-33.0
231680.0,0.617676,-0.809326,-0.017212,-2.075195,-0.549316,-1.037598,2.0,-17.0,-33.0
231712.0,0.610107,-0.805908,-0.01416,-2.075195,-0.061035,-1.220703,2.0,-20.0,-33.0
231744.0,0.612549,-0.812622,-0.015869,-2.075195,0.061035,-0.671387,2.0,-20.0,-33.0
231775.0,0.612183,-0.808105,-0.012085,-1.831055,-0.488281,-0.732422,2.0,-20.0,-33.0
231807.0,0.609619,-0.812256,-0.012329,-1.464844,-0.732422,-0.183105,2.0,-20.0,-33.0
231839.0,0.609985,-0.80957,-0.010132,-1.464844,-0.061035,0.061035,4.0,-18.0,-31.0
231870.0,0.612305,-0.807739,-0.010742,-0.549316,0.854492,0.12207,4.0,-18.0,-31.0
231901.0,0.61145,-0.807739,-0.007202,0.183105,1.037598,0.061035,4.0,-18.0,-31.0
231933.0,0.61377,-0.80896,-0.010864,1.098633,0.732422,0.427246,3.0,-20.0,-30.0
231964.0,0.612061,-0.807739,-0.012573,1.464844,0.366211,0.305176,3.0,-20.0,-30.0
231996.0,0.611938,-0.810181,-0.014282,2.01416,0.732422,0.549316,3.0,-20.0,-30.0
232029.0,0.613037,-0.807373,-0.016357,1.770019,1.037598,0.427246,4.0,-20.0,-33.0
232060.0,0.615356,-0.811401,-0.021362,1.342773,0.854492,0.732422,4.0,-20.0,-33.0
232091.0,0.614502,-0.807007,-0.022583,0.610352,0.854492,0.244141,4.0,-20.0,-33.0
232123.0,0.615234,-0.811157,-0.022339,0.0,0.549316,0.244141,5.0,-20.0,-33.0
232154.0,0.615356,-0.805786,-0.020508,-0.610352,0.366211,0.0,5.0,-20.0,-33.0
232185.0,0.614868,-0.81189,-0.02124,-0.732422,0.0,0.0,5.0,-20.0,-33.0
232217.0,0.612183,-0.805908,-0.01709,-0.976562,-0.12207,-0.305176,4.0,-17.0,-31.0
232248.0,0.613403,-0.811523,-0.019043,-0.732422,0.12207,0.0,4.0,-17.0,-31.0
232279.0,0.612549,-0.806641,-0.018555,-0.915527,0.061035,-0.12207,4.0,-17.0,-31.0
232315.0,0.61438,-0.810303,-0.019043,-0.610352,0.061035,0.12207,3.0,-18.0,-31.0
232346.0,0.613037,-0.808472,-0.01709,-0.732422,-0.305176,0.0,3.0,-18.0,-31.0
232377.0,0.613037,-0.808228,-0.018066,-0.549316,0.061035,0.0,3.0,-18.0,-31.0
232409.0,0.613403,-0.808838,-0.018066,-0.610352,0.366211,0.0,4.0,-22.0,-34.0
232440.0,0.613525,-0.807251,-0.02002,-0.305176,0.12207,0.061035,4.0,-22.0,-34.0
232472.0,0.612793,-0.808716,-0.016357,-0.244141,0.0,-0.061035,4.0,-22.0,-34.0
232505.0,0.612549,-0.810547,-0.019043,0.12207,0.244141,0.183105,2.0,-19.0,-37.0
232537.0,0.61377,-0.806519,-0.019165,0.0,0.427246,0.12207,2.0,-19.0,-37.0
232569.0,0.614014,-0.810669,-0.021973,0.12207,0.061035,0.244141,2.0,-19.0,-37.0
232601.0,0.611938,-0.80957,-0.018555,-0.12207,0.0,0.061035,4.0,-19.0,-30.0
232632.0,0.612305,-0.806396,-0.019287,0.061035,0.183105,0.244141,4.0,-19.0,-30.0
232663.0,0.615112,-0.809692,-0.021973,-0.305176,0.549316,-0.061035,4.0,-19.0,-30.0
232696.0,0.614136,-0.809448,-0.019531,-0.488281,-0.12207,-0.061035,4.0,-20.0,-31.0
232727.0,0.612793,-0.808228,-0.019043,-0.671387,-0.366211,-0.12207,4.0,-20.0,-31.0
232758.0,0.611572,-0.810303,-0.019775,-0.976562,0.12207,-0.183105,4.0,-20.0,-31.0
232789.0,0.612915,-0.808105,-0.018311,-0.976562,0.12207,0.12207,4.0,-20.0,-31.0
232821.0,0.61438,-0.809204,-0.018311,-0.793457,-0.061035,-0.061035,2.0,-18.0,-40.0
232852.0,0.611938,-0.807861,-0.018433,-0.793457,-0.061035,-0.061035,2.0,-18.0,-40.0
232883.0,0.614014,-0.810669,-0.017944,-0.793457,-0.061035,0.12207,2.0,-18.0,-40.0
232915.0,0.613037,-0.806641,-0.017822,-0.854492,-0.183105,-0.12207,5.0,-19.0,-34.0
232947.0,0.612793,-0.810181,-0.016479,-0.732422,0.0,-0.061035,5.0,-19.0,-34.0
232980.0,0.611572,-0.809692,-0.018066,-0.915527,0.244141,-0.061035,5.0,-19.0,-34.0
233012.0,0.611572,-0.808594,-0.017822,-0.671387,0.183105,0.061035,2.0,-20.0,-31.0
233043.0,0.61377,-0.809692,-0.016479,-0.732422,-0.061035,0.0,2.0,-20.0,-31.0
233074.0,0.61145,-0.80896,-0.01416,-0.610352,0.0,0.0,2.0,-20.0,-31.0
233110.0,0.613525,-0.809692,-0.018066,-0.549316,0.0,0.12207,5.0,-18.0,-34.0
233145.0,0.612061,-0.809448,-0.017944,-0.610352,-0.061035,-0.061035,5.0,-18.0,-34.0
233177.0,0.611694,-0.810913,-0.016357,-0.549316,0.0,0.061035,5.0,-18.0,-34.0
233209.0,0.612671,-0.806641,-0.014038,-0.427246,0.244141,0.0,3.0,-20.0,-36.0
233240.0,0.612427,-0.812012,-0.017456,-0.305176,0.12207,0.0,3.0,-20.0,-36.0
233271.0,0.611938,-0.806519,-0.014526,-0.366211,0.0,0.061035,3.0,-20.0,-36.0
233303.0,0.612549,-0.811646,-0.016357,-0.244141,-0.244141,0.061035,1.0,-20.0,-38.0
233335.0,0.610229,-0.808228,-0.017334,-0.488281,-0.12207,-0.12207,1.0,-20.0,-38.0
233367.0,0.612061,-0.809937,-0.016357,-0.305176,0.793457,0.12207,1.0,-20.0,-38.0
233400.0,0.613525,-0.808472,-0.016479,-0.244141,0.366211,0.061035,2.0,-19.0,-34.0
233431.0,0.612671,-0.810303,-0.016479,-0.183105,-0.061035,0.061035,2.0,-19.0,-34.0
233462.0,0.612427,-0.808472,-0.017456,-0.244141,-0.061035,0.061035,2.0,-19.0,-34.0
233495.0,0.612183,-0.810547,-0.016724,-0.305176,0.12207,0.061035,4.0,-20.0,-33.0
233526.0,0.613403,-0.808716,-0.018188,-0.305176,-0.061035,0.061035,4.0,-20.0,-33.0
233558.0,0.612549,-0.810669,-0.018677,-0.427246,0.061035,-0.061035,4.0,-20.0,-33.0
233590.0,0.612671,-0.809448,-0.019287,-0.793457,0.12207,-0.12207,1.0,-18.0,-33.0
233621.0,0.611938,-0.810669,-0.016602,-0.793457,0.061035,-0.12207,1.0,-18.0,-33.0
233654.0,0.612915,-0.809814,-0.015991,-0.732422,-0.183105,-0.061035,1.0,-18.0,-33.0
233688.0,0.612183,-0.808594,-0.017212,-0.793457,0.061035,-0.183105,3.0,-20.0,-33.0
233719.0,0.611206,-0.811035,-0.014771,-0.732422,0.12207,0.061035,3.0,-20.0,-33.0
233750.0,0.612305,-0.810181,-0.015137,-0.671387,0.0,0.12207,3.0,-20.0,-33.0
233782.0,0.612305,-0.807495,-0.014404,-0.427246,0.183105,-0.061035,4.0,-19.0,-31.0
233813.0,0.612061,-0.81189,-0.016235,-0.183105,0.305176,0.183105,4.0,-19.0,-31.0
233844.0,0.614502,-0.807373,-0.015503,-0.12207,0.183105,0.061035,4.0,-19.0,-31.0
233877.0,0.611816,-0.812256,-0.016968,0.0,0.0,0.061035,1.0,-17.0,-30.0
233908.0,0.611206,-0.807617,-0.016479,-0.12207,0.488281,0.12207,1.0,-17.0,-30.0
233943.0,0.611694,-0.810913,-0.015869,0.061035,0.183105,0.183105,1.0,-17.0,-30.0
233979.0,0.611694,-0.80835,-0.016602,0.0,0.549316,0.183105,3.0,-17.0,-33.0
234010.0,0.613525,-0.811401,-0.017822,0.0,0.305176,0.183105,3.0,-17.0,-33.0
234041.0,0.611084,-0.808838,-0.018188,-0.12207,0.12207,0.061035,3.0,-17.0,-33.0
234073.0,0.612671,-0.810059,-0.016357,-0.183105,0.366211,0.183105,3.0,-17.0,-31.0
234104.0,0.612915,-0.809326,-0.019165,-0.061035,0.12207,0.12207,3.0,-17.0,-31.0
234135.0,0.611206,-0.809082,-0.017578,-0.183105,0.244141,-0.061035,3.0,-17.0,-31.0
234167.0,0.611816,-0.810303,-0.017334,0.061035,0.366211,0.244141,3.0,-19.0,-29.0
234198.0,0.611328,-0.809448,-0.019287,-0.12207,0.366211,0.12207,3.0,-19.0,-29.0
234229.0,0.611816,-0.810059,-0.018555,0.12207,0.488281,0.12207,3.0,-19.0,-29.0
234262.0,0.613525,-0.807861,-0.02002,0.0,0.244141,0.061035,3.0,-19.0,-29.0
234294.0,0.610962,-0.812256,-0.020142,0.061035,-0.12207,0.183105,3.0,-18.0,-35.0
234329.0,0.61377,-0.809326,-0.02063,-0.183105,0.305176,0.244141,3.0,-18.0,-35.0
234360.0,0.612915,-0.807983,-0.018188,-0.183105,0.305176,0.0,3.0,-18.0,-35.0
234392.0,0.613037,-0.810913,-0.02002,-0.427246,-0.061035,-0.12207,4.0,-21.0,-35.0
234423.0,0.613525,-0.808472,-0.019531,-0.732422,-0.061035,-0.061035,4.0,-21.0,-35.0
234454.0,0.610474,-0.810791,-0.019653,-0.610352,0.0,0.0,4.0,-21.0,-35.0
234486.0,0.611328,-0.80957,-0.018066,-0.671387,0.488281,0.0,1.0,-20.0,-35.0
234517.0,0.612915,-0.811157,-0.019653,-0.366211,0.183105,0.183105,1.0,-20.0,-35.0
234548.0,0.611328,-0.806519,-0.018677,-0.427246,-0.061035,0.0,1.0,-20.0,-35.0
234580.0,0.612305,-0.810547,-0.018311,-0.12207,0.183105,0.244141,0.0,-19.0,-35.0
234611.0,0.610962,-0.810059,-0.016968,-0.12207,0.305176,0.061035,0.0,-19.0,-35.0
234642.0,0.612061,-0.808716,-0.019653,0.183105,0.244141,0.244141,0.0,-19.0,-35.0
234674.0,0.612549,-0.807983,-0.018188,0.183105,0.427246,0.183105,2.0,-18.0,-31.0
234705.0,0.613037,-0.810181,-0.021484,0.183105,0.427246,0.183105,2.0,-18.0,-31.0
234736.0,0.612305,-0.810669,-0.020874,0.183105,0.305176,0.12207,2.0,-18.0,-31.0
234768.0,0.611084,-0.808105,-0.020386,0.305176,0.305176,0.12207,5.0,-20.0,-36.0
234799.0,0.613892,-0.812378,-0.022583,0.183105,0.549316,0.244141,5.0,-20.0,-36.0
234830.0,0.612549,-0.809082,-0.022339,-0.061035,0.366211,0.183105,5.0,-20.0,-36.0
234862.0,0.612793,-0.808228,-0.022461,-0.061035,0.244141,0.244141,2.0,-19.0,-37.0
234893.0,0.613281,-0.810425,-0.021729,-0.183105,0.12207,0.061035,2.0,-19.0,-37.0
234924.0,0.613037,-0.809814,-0.022217,-0.061035,0.12207,0.244141,2.0,-19.0,-37.0
234956.0,0.613525,-0.807739,-0.021851,-0.244141,0.061035,0.061035,5.0,-19.0,-33.0
234987.0,0.611938,-0.811646,-0.022461,-0.183105,0.061035,0.061035,5.0,-19.0,-33.0
235018.0,0.613647,-0.806885,-0.022339,-0.366211,0.427246,0.0,5.0,-19.0,-33.0
235049.0,0.613403,-0.812134,-0.02356,-0.12207,0.12207,0.12207,5.0,-19.0,-33.0
235081.0,0.612427,-0.807129,-0.024048,-0.244141,-0.305176,-0.183105,4.0,-20.0,-34.0
235113.0,0.609253,-0.811279,-0.021362,-0.305176,0.305176,0.183105,4.0,-20.0,-34.0
235144.0,0.614502,-0.808838,-0.025146,-0.488281,0.12207,0.061035,4.0,-20.0,-34.0
235176.0,0.611694,-0.809082,-0.021729,-0.488281,0.061035,0.12207,4.0,-20.0,-34.0
235207.0,0.613892,-0.809448,-0.023926,-0.488281,0.12207,0.183105,4.0,-20.0,-34.0
235238.0,0.612549,-0.808105,-0.022461,-0.793457,0.183105,-0.12207,4.0,-20.0,-34.0
235270.0,0.613403,-0.810059,-0.023437,-0.732422,0.0,-0.12207,1.0,-19.0,-34.0
235302.0,0.611816,-0.808472,-0.020142,-0.793457,-0.061035,-0.12207,1.0,-19.0,-34.0
235334.0,0.611328,-0.811279,-0.022461,-0.671387,0.0,0.12207,1.0,-19.0,-34.0
235366.0,0.611938,-0.80896,-0.021973,-0.732422,0.183105,0.0,1.0,-19.0,-32.0
235398.0,0.613281,-0.809814,-0.02124,-0.427246,0.183105,0.12207,1.0,-19.0,-32.0
235429.0,0.612793,-0.808838,-0.021606,-0.549316,0.0,0.12207,1.0,-19.0,-32.0
235461.0,0.612183,-0.809814,-0.022339,-0.427246,-0.061035,0.061035,3.0,-19.0,-32.0
235492.0,0.611206,-0.809937,-0.020996,-0.427246,0.0,0.0,3.0,-19.0,-32.0
235523.0,0.612427,-0.80835,-0.023437,-0.305176,0.305176,0.244141,3.0,-19.0,-32.0
235555.0,0.613403,-0.809937,-0.021118,-0.488281,0.244141,0.061035,4.0,-22.0,-33.0
235586.0,0.612427,-0.808228,-0.022095,-0.488281,0.061035,0.061035,4.0,-22.0,-33.0
235617.0,0.612427,-0.808228,-0.022583,-0.671387,-0.061035,0.0,4.0,-22.0,-33.0
235649.0,0.612061,-0.811035,-0.022461,-0.610352,-0.12207,0.0,1.0,-19.0,-35.0
235680.0,0.612305,-0.808105,-0.020874,-0.671387,0.12207,-0.061035,1.0,-19.0,-35.0
235711.0,0.612061,-0.811279,-0.021362,-0.671387,0.12207,0.061035,1.0,-19.0,-35.0
235744.0,0.611938,-0.80957,-0.021606,-0.610352,0.061035,0.061035,3.0,-19.0,-32.0
235775.0,0.612183,-0.811035,-0.021729,-0.488281,-0.061035,0.183105,3.0,-19.0,-32.0
235806.0,0.611694,-0.808105,-0.020508,-0.671387,-0.183105,0.061035,3.0,-19.0,-32.0
235838.0,0.613403,-0.809326,-0.022095,-0.610352,0.183105,0.061035,3.0,-17.0,-38.0
235869.0,0.611938,-0.811035,-0.020508,-0.671387,0.0,-0.12207,3.0,-17.0,-38.0
235900.0,0.611572,-0.807617,-0.019165,-0.610352,0.061035,-0.061035,3.0,-17.0,-38.0
235931.0,0.612549,-0.810181,-0.020996,-0.610352,0.0,-0.061035,3.0,-17.0,-38.0
235963.0,0.61145,-0.80896,-0.020508,-0.671387,0.0,0.0,3.0,-19.0,-36.0
235994.0,0.612305,-0.809448,-0.02002,-0.671387,0.0,0.0,3.0,-19.0,-36.0
236025.0,0.61084,-0.808228,-0.020386,-0.488281,-0.061035,0.0,3.0,-19.0,-36.0
236057.0,0.612305,-0.809937,-0.02002,-0.549316,0.183105,0.183105,4.0,-19.0,-36.0
236088.0,0.611816,-0.809814,-0.018188,-0.427246,0.12207,0.12207,4.0,-19.0,-36.0
236120.0,0.613525,-0.809326,-0.021118,-0.305176,0.12207,0.0,4.0,-19.0,-36.0
236152.0,0.612671,-0.810425,-0.020142,-0.244141,-0.061035,0.0,2.0,-20.0,-35.0
236183.0,0.611816,-0.80957,-0.019165,-0.488281,-0.061035,-0.061035,2.0,-20.0,-35.0
236215.0,0.613037,-0.811279,-0.022339,-0.488281,0.0,0.0,2.0,-20.0,-35.0
236248.0,0.61084,-0.80957,-0.018799,-0.732422,0.061035,-0.12207,0.0,-19.0,-32.0
236279.0,0.612061,-0.80957,-0.020508,-0.671387,0.305176,0.183105,0.0,-19.0,-32.0
236310.0,0.613525,-0.810425,-0.019287,-0.793457,-0.061035,-0.061035,0.0,-19.0,-32.0
236342.0,0.611572,-0.810303,-0.019897,-0.671387,-0.244141,-0.061035,0.0,-20.0,-30.0
236373.0,0.612427,-0.80896,-0.020264,-0.915527,-0.244141,-0.12207,0.0,-20.0,-30.0
236404.0,0.611694,-0.812012,-0.019043,-0.976562,0.0,-0.061035,0.0,-20.0,-30.0
236436.0,0.612549,-0.807983,-0.017822,-1.159668,-0.12207,-0.061035,3.0,-22.0,-39.0
236469.0,0.61145,-0.810425,-0.018188,-1.098633,-0.12207,-0.183105,3.0,-22.0,-39.0
236500.0,0.611816,-0.811401,-0.018799,-1.220703,0.0,-0.183105,3.0,-22.0,-39.0
236532.0,0.609741,-0.810547,-0.016235,-0.915527,-0.12207,0.0,2.0,-18.0,-35.0
236564.0,0.613892,-0.809326,-0.016602,-0.793457,0.183105,0.183105,2.0,-18.0,-35.0
236596.0,0.611694,-0.811157,-0.016235,-0.671387,-0.061035,-0.12207,2.0,-18.0,-35.0
236629.0,0.610596,-0.810059,-0.016113,-0.488281,0.183105,0.0,4.0,-20.0,-33.0
236661.0,0.610718,-0.809937,-0.015991,-0.427246,0.0,0.0,4.0,-20.0,-33.0
236692.0,0.611938,-0.811279,-0.016724,-0.244141,0.12207,0.183105,4.0,-20.0,-33.0
236724.0,0.611694,-0.810425,-0.015991,-0.244141,0.427246,0.061035,4.0,-19.0,-38.0
236755.0,0.612061,-0.810791,-0.016479,-0.061035,0.061035,0.12207,4.0,-19.0,-38.0
236786.0,0.612427,-0.809448,-0.01709,-0.183105,0.183105,0.0,4.0,-19.0,-38.0
236817.0,0.611694,-0.812866,-0.017944,-0.183105,0.12207,0.12207,4.0,-19.0,-38.0
236849.0,0.611206,-0.809204,-0.016846,-0.488281,0.061035,0.061035,4.0,-19.0,-36.0
236881.0,0.610962,-0.811646,-0.01709,-0.488281,0.183105,0.12207,4.0,-19.0,-36.0
236912.0,0.611572,-0.809692,-0.016968,-0.610352,0.244141,0.12207,4.0,-19.0,-36.0
236944.0,0.610962,-0.810791,-0.017456,-0.488281,0.305176,0.305176,3.0,-17.0,-31.0
236977.0,0.611328,-0.80896,-0.015991,-0.366211,0.12207,0.061035,3.0,-17.0,-31.0
237008.0,0.611816,-0.811279,-0.0177,-0.061035,0.12207,0.12207,3.0,-17.0,-31.0
237040.0,0.612061,-0.808228,-0.017212,-0.12207,0.305176,-0.061035,4.0,-19.0,-32.0
237071.0,0.610596,-0.810181,-0.0177,0.0,0.244141,0.12207,4.0,-19.0,-32.0
237102.0,0.611206,-0.808838,-0.017212,-0.061035,0.366211,0.12207,4.0,-19.0,-32.0
237135.0,0.611694,-0.812134,-0.018921,0.12207,0.549316,0.305176,2.0,-20.0,-34.0
237166.0,0.611206,-0.808228,-0.017822,0.061035,0.183105,0.12207,2.0,-20.0,-34.0
237198.0,0.612671,-0.810059,-0.020264,0.061035,0.244141,0.183105,2.0,-20.0,-34.0
237231.0,0.611328,-0.809937,-0.018677,-0.12207,0.305176,0.061035,2.0,-21.0,-30.0
237262.0,0.611206,-0.809448,-0.018066,-0.061035,0.305176,0.183105,2.0,-21.0,-30.0
237293.0,0.611084,-0.810791,-0.018921,0.0,0.366211,0.183105,2.0,-21.0,-30.0
237325.0,0.613037,-0.809937,-0.019653,0.061035,0.183105,0.305176,3.0,-21.0,-35.0
237358.0,0.612427,-0.808716,-0.019775,0.183105,0.305176,0.12207,3.0,-21.0,-35.0
237390.0,0.611206,-0.812866,-0.019653,0.061035,0.366211,0.12207,3.0,-21.0,-35.0
237423.0,0.613037,-0.807861,-0.021484,0.183105,0.305176,0.12207,2.0,-21.0,-35.0
237454.0,0.609253,-0.81311,-0.021729,0.183105,0.244141,0.183105,2.0,-21.0,-35.0
237486.0,0.612549,-0.807495,-0.02124,0.244141,0.793457,0.427246,2.0,-21.0,-35.0
237519.0,0.612793,-0.810425,-0.021362,0.305176,0.549316,0.305176,1.0,-19.0,-37.0
237550.0,0.611572,-0.807861,-0.020996,0.305176,0.305176,0.244141,1.0,-19.0,-37.0
237581.0,0.614136,-0.810669,-0.024414,0.427246,0.366211,0.549316,1.0,-19.0,-37.0
237613.0,0.611328,-0.807495,-0.022095,0.305176,0.427246,0.183105,4.0,-18.0,-35.0
237644.0,0.613037,-0.80957,-0.022705,0.305176,0.671387,0.305176,4.0,-18.0,-35.0
237674.0,0.61377,-0.808228,-0.024902,0.244141,0.610352,0.12207,4.0,-18.0,-35.0
237705.0,0.612427,-0.811279,-0.023682,0.366211,0.183105,0.183105,1.0,-19.0,-33.0
237736.0,0.612549,-0.808472,-0.025146,0.244141,0.305176,0.183105,1.0,-19.0,-33.0
237767.0,0.612427,-0.810791,-0.025391,0.183105,0.610352,0.183105,1.0,-19.0,-33.0
237802.0,0.614136,-0.808105,-0.025024,0.12207,0.244141,0.183105,4.0,-19.0,-39.0
237834.0,0.612671,-0.810425,-0.026489,0.0,0.183105,0.244141,4.0,-19.0,-39.0
237865.0,0.613403,-0.809692,-0.026245,-0.183105,0.12207,0.061035,4.0,-19.0,-39.0
237896.0,0.612305,-0.809204,-0.026001,-0.366211,0.061035,0.12207,4.0,-19.0,-39.0
237928.0,0.612671,-0.80957,-0.026855,-0.427246,0.183105,0.244141,3.0,-21.0,-37.0
237959.0,0.61438,-0.807861,-0.025879,-0.488281,0.244141,0.0,3.0,-21.0,-37.0
237990.0,0.613159,-0.809692,-0.026123,-0.610352,-0.061035,0.0,3.0,-21.0,-37.0
238022.0,0.612793,-0.807007,-0.025391,-0.610352,0.061035,-0.12207,5.0,-17.0,-32.0
238057.0,0.612183,-0.810547,-0.025146,-0.610352,-0.244141,-0.061035,5.0,-17.0,-32.0
238088.0,0.612305,-0.80835,-0.026489,-0.671387,0.12207,0.0,5.0,-17.0,-32.0
238122.0,0.613525,-0.811401,-0.025879,-0.671387,0.183105,0.12207,7.0,-16.0,-36.0
238153.0,0.611938,-0.807495,-0.02478,-0.793457,-0.244141,-0.061035,7.0,-16.0,-36.0
238184.0,0.613037,-0.80957,-0.024902,-0.671387,-0.061035,0.12207,7.0,-16.0,-36.0
238217.0,0.612915,-0.808472,-0.023926,-0.854492,0.0,0.0,4.0,-19.0,-39.0
238248.0,0.613159,-0.809326,-0.025146,-0.854492,0.12207,-0.12207,4.0,-19.0,-39.0
238279.0,0.61377,-0.809082,-0.023682,-0.854492,0.061035,-0.12207,4.0,-19.0,-39.0
238311.0,0.613037,-0.810181,-0.025024,-0.732422,0.061035,0.061035,4.0,-19.0,-36.0
238342.0,0.612427,-0.810913,-0.02356,-0.671387,-0.061035,0.061035,4.0,-19.0,-36.0
238373.0,0.612915,-0.807983,-0.023315,-0.671387,-0.12207,0.0,4.0,-19.0,-36.0
238406.0,0.611816,-0.809814,-0.024536,-0.732422,-0.12207,0.0,4.0,-20.0,-33.0
238437.0,0.613037,-0.807739,-0.024048,-0.732422,0.12207,-0.12207,4.0,-20.0,-33.0
238468.0,0.613037,-0.810303,-0.02356,-0.732422,0.0,0.0,4.0,-20.0,-33.0
238500.0,0.610474,-0.810913,-0.021606,-0.732422,0.0,0.061035,2.0,-19.0,-31.0
238532.0,0.616211,-0.808838,-0.023926,-0.732422,0.12207,0.183105,2.0,-19.0,-31.0
238563.0,0.612793,-0.808472,-0.022095,-0.671387,-0.061035,0.0,2.0,-19.0,-31.0
238595.0,0.612793,-0.810669,-0.021729,-0.549316,-0.183105,0.061035,4.0,-20.0,-36.0
238626.0,0.612305,-0.808838,-0.022949,-0.671387,0.183105,-0.12207,4.0,-20.0,-36.0
238657.0,0.612061,-0.813232,-0.021729,-0.671387,0.0,0.0,4.0,-20.0,-36.0
238689.0,0.611328,-0.807495,-0.022095,-0.671387,0.183105,0.061035,4.0,-17.0,-37.0
238720.0,0.613037,-0.810913,-0.021484,-0.610352,0.183105,0.183105,4.0,-17.0,-37.0
238751.0,0.612061,-0.810669,-0.022339,-0.793457,-0.12207,0.0,4.0,-17.0,-37.0
238784.0,0.613159,-0.807861,-0.021851,-0.854492,-0.183105,0.061035,3.0,-20.0,-35.0
238818.0,0.611816,-0.810303,-0.021973,-0.915527,-0.12207,-0.061035,3.0,-20.0,-35.0
238850.0,0.612793,-0.809326,-0.02002,-1.098633,0.0,-0.12207,3.0,-20.0,-35.0
238883.0,0.61145,-0.808594,-0.019897,-1.037598,-0.366211,-0.183105,3.0,-20.0,-38.0
238915.0,0.611816,-0.80957,-0.019287,-1.098633,-0.12207,-0.061035,3.0,-20.0,-38.0
238946.0,0.612427,-0.809448,-0.018311,-1.098633,0.12207,-0.12207,3.0,-20.0,-38.0
238977.0,0.611938,-0.811279,-0.017334,-0.976562,-0.061035,0.0,3.0,-20.0,-38.0
239009.0,0.611816,-0.809326,-0.019775,-0.854492,-0.305176,0.0,3.0,-19.0,-34.0
239040.0,0.610229,-0.80896,-0.016968,-0.915527,-0.12207,-0.061035,3.0,-19.0,-34.0
239074.0,0.611694,-0.811401,-0.019165,-0.610352,-0.061035,0.12207,3.0,-19.0,-34.0
239106.0,0.611938,-0.808228,-0.016602,-0.671387,0.183105,0.061035,3.0,-21.0,-36.0
239138.0,0.611328,-0.811768,-0.018555,-0.427246,0.305176,0.244141,3.0,-21.0,-36.0
239169.0,0.612793,-0.808838,-0.017578,-0.366211,0.12207,0.12207,3.0,-21.0,-36.0
239201.0,0.611084,-0.80835,-0.017578,-0.12207,0.183105,0.061035,4.0,-19.0,-37.0
239234.0,0.611816,-0.81189,-0.018555,-0.12207,0.183105,0.061035,4.0,-19.0,-37.0
239266.0,0.612549,-0.806885,-0.019653,-0.12207,0.061035,0.061035,4.0,-19.0,-37.0
239300.0,0.611328,-0.811157,-0.019897,-0.12207,0.244141,0.12207,3.0,-18.0,-35.0
239331.0,0.612793,-0.808105,-0.02063,-0.366211,0.366211,0.244141,3.0,-18.0,-35.0
239362.0,0.612061,-0.811768,-0.019531,-0.427246,0.0,0.12207,3.0,-18.0,-35.0
239396.0,0.610474,-0.807983,-0.019165,-0.488281,0.183105,0.061035,2.0,-19.0,-35.0
239427.0,0.612793,-0.812622,-0.020386,-0.488281,0.12207,0.244141,2.0,-19.0,-35.0
239458.0,0.61145,-0.80835,-0.018433,-0.610352,0.12207,-0.061035,2.0,-19.0,-35.0
239490.0,0.612427,-0.810913,-0.017822,-0.427246,0.305176,0.12207,2.0,-20.0,-31.0
239522.0,0.611694,-0.809448,-0.019043,-0.366211,-0.061035,0.0,2.0,-20.0,-31.0
239553.0,0.61084,-0.809692,-0.018921,-0.305176,0.366211,0.12207,2.0,-20.0,-31.0
239586.0,0.613159,-0.810547,-0.018677,-0.366211,0.061035,0.12207,3.0,-19.0,-37.0
239617.0,0.612061,-0.810547,-0.020386,-0.305176,-0.061035,0.183105,3.0,-19.0,-37.0
239648.0,0.612183,-0.809692,-0.020142,-0.488281,0.061035,0.244141,3.0,-19.0,-37.0
239680.0,0.612915,-0.809692,-0.018799,-0.610352,-0.061035,0.061035,3.0,-16.0,-35.0
239712.0,0.612427,-0.810913,-0.020264,-0.610352,0.183105,-0.061035,3.0,-16.0,-35.0
239744.0,0.61145,-0.810059,-0.017822,-0.793457,0.366211,-0.12207,3.0,-16.0,-35.0
239776.0,0.612549,-0.809692,-0.0177,-0.427246,0.244141,0.061035,3.0,-19.0,-35.0
239807.0,0.61145,-0.810547,-0.018188,-0.305176,0.12207,0.12207,3.0,-19.0,-35.0
239840.0,0.611938,-0.808838,-0.018921,-0.061035,0.12207,0.12207,3.0,-19.0,-35.0
239872.0,0.613281,-0.810547,-0.019409,-0.12207,-0.061035,0.061035,6.0,-18.0,-37.0
239904.0,0.610352,-0.810303,-0.019043,-0.061035,0.183105,0.0,6.0,-18.0,-37.0
239935.0,0.611816,-0.809937,-0.020142,-0.12207,0.427246,0.061035,6.0,-18.0,-37.0
239968.0,0.612427,-0.809448,-0.019531,-0.061035,0.671387,0.183105,4.0,-18.0,-38.0
240000.0,0.612671,-0.811035,-0.020874,0.061035,0.183105,0.244141,4.0,-18.0,-38.0
240032.0,0.612427,-0.80896,-0.020264,0.0,-0.244141,0.183105,4.0,-18.0,-38.0
240065.0,0.610718,-0.809204,-0.02124,0.0,0.305176,0.305176,4.0,-19.0,-31.0
240097.0,0.612061,-0.808594,-0.021118,-0.12207,0.366211,0.183105,4.0,-19.0,-31.0
240130.0,0.612427,-0.808716,-0.02124,-0.183105,0.366211,0.12207,4.0,-19.0,-31.0
240163.0,0.612793,-0.810791,-0.02124,-0.061035,0.244141,0.183105,5.0,-19.0,-34.0
240194.0,0.612183,-0.807495,-0.021851,-0.183105,0.366211,0.12207,5.0,-19.0,-34.0
240227.0,0.612671,-0.811768,-0.020996,0.12207,0.305176,0.183105,5.0,-19.0,-34.0
240258.0,0.611694,-0.808594,-0.021973,0.0,0.244141,0.244141,4.0,-16.0,-33.0
240289.0,0.612427,-0.810303,-0.022339,0.12207,0.366211,0.244141,4.0,-16.0,-33.0
240322.0,0.612061,-0.809814,-0.022705,0.061035,0.366211,0.183105,4.0,-16.0,-33.0
240356.0,0.613159,-0.808472,-0.022583,0.183105,0.427246,0.244141,2.0,-20.0,-34.0
240387.0,0.613037,-0.809204,-0.023193,0.061035,0.183105,0.183105,2.0,-20.0,-34.0
240419.0,0.612549,-0.809326,-0.024658,0.061035,0.305176,0.12207,2.0,-20.0,-34.0
240452.0,0.611938,-0.810303,-0.023437,0.061035,0.366211,0.366211,2.0,-20.0,-34.0
240485.0,0.614136,-0.807983,-0.025024,-0.061035,0.244141,0.061035,1.0,-18.0,-31.0
240516.0,0.613281,-0.808838,-0.024292,-0.244141,0.12207,0.12207,1.0,-18.0,-31.0
240548.0,0.611938,-0.80957,-0.022461,-0.305176,0.12207,0.0,1.0,-18.0,-31.0
240581.0,0.613159,-0.809082,-0.024292,-0.12207,0.305176,0.183105,1.0,-19.0,-34.0
240613.0,0.611694,-0.809326,-0.023437,-0.366211,0.305176,0.0,1.0,-19.0,-34.0
240647.0,0.613647,-0.80835,-0.024658,-0.244141,0.244141,0.244141,1.0,-19.0,-34.0
240683.0,0.611694,-0.80957,-0.025024,-0.305176,-0.12207,0.061035,3.0,-18.0,-36.0
240716.0,0.612183,-0.807983,-0.024536,-0.549316,0.061035,0.12207,3.0,-18.0,-36.0
240749.0,0.61377,-0.809692,-0.02478,-0.549316,0.061035,0.183105,2.0,-19.0,-35.0
240783.0,0.611572,-0.80896,-0.024048,-0.732422,0.183105,-0.12207,2.0,-19.0,-35.0
240815.0,0.612915,-0.809814,-0.024414,-0.671387,0.366211,0.0,2.0,-19.0,-35.0
240847.0,0.612549,-0.809082,-0.023315,-0.427246,0.061035,0.061035,2.0,-19.0,-29.0
240879.0,0.612671,-0.808594,-0.02356,-0.366211,0.0,0.12207,2.0,-19.0,-29.0
240910.0,0.613281,-0.807983,-0.02417,-0.427246,0.061035,0.12207,2.0,-19.0,-29.0
240941.0,0.613647,-0.808472,-0.022827,-0.366211,-0.061035,0.12207,2.0,-19.0,-29.0
240974.0,0.613892,-0.809204,-0.024414,-0.305176,0.244141,0.061035,4.0,-20.0,-35.0
241005.0,0.613159,-0.808594,-0.023682,-0.305176,0.061035,0.061035,4.0,-20.0,-35.0
241037.0,0.611816,-0.809082,-0.023682,-0.549316,-0.061035,0.061035,4.0,-20.0,-35.0
241068.0,0.613403,-0.80835,-0.025269,-0.671387,0.061035,0.0,5.0,-18.0,-32.0
241100.0,0.612671,-0.80957,-0.023804,-0.610352,-0.12207,0.12207,5.0,-18.0,-32.0
241132.0,0.612549,-0.807739,-0.023071,-0.671387,0.12207,-0.061035,5.0,-18.0,-32.0
241165.0,0.613037,-0.810791,-0.023804,-0.732422,0.0,-0.061035,4.0,-16.0,-34.0
241199.0,0.613037,-0.808105,-0.023926,-0.854492,-0.12207,-0.061035,4.0,-16.0,-34.0
241234.0,0.611938,-0.810425,-0.02356,-0.915527,-0.244141,-0.061035,4.0,-16.0,-34.0
241267.0,0.610962,-0.806641,-0.021973,-0.976562,-0.183105,-0.12207,2.0,-20.0,-29.0
241300.0,0.612549,-0.810669,-0.022339,-0.854492,0.183105,0.12207,2.0,-20.0,-29.0
241332.0,0.612549,-0.810059,-0.020874,-0.854492,0.061035,0.0,2.0,-20.0,-29.0
241365.0,0.613281,-0.809692,-0.022583,-0.610352,-0.061035,0.12207,2.0,-20.0,-34.0
241399.0,0.61145,-0.810303,-0.021973,-0.732422,-0.183105,0.0,2.0,-20.0,-34.0
241433.0,0.612915,-0.808228,-0.020508,-0.488281,0.0,-0.061035,2.0,-20.0,-34.0
241466.0,0.612305,-0.809937,-0.020874,-0.427246,0.061035,0.0,5.0,-17.0,-32.0
241497.0,0.611084,-0.808716,-0.021606,-0.488281,0.305176,0.061035,5.0,-17.0,-32.0
241528.0,0.612915,-0.810669,-0.020874,-0.366211,0.305176,0.183105,5.0,-17.0,-32.0
241562.0,0.613037,-0.808838,-0.02124,-0.244141,0.12207,0.12207,2.0,-19.0,-34.0
241593.0,0.612305,-0.809326,-0.021606,-0.305176,0.061035,0.061035,2.0,-19.0,-34.0
241624.0,0.613037,-0.810303,-0.020874,-0.12207,-0.12207,0.061035,2.0,-19.0,-34.0
241656.0,0.611572,-0.80957,-0.022949,-0.305176,0.0,0.12207,2.0,-19.0,-36.0
241688.0,0.611694,-0.807983,-0.021606,-0.427246,0.427246,0.061035,2.0,-19.0,-36.0
241721.0,0.613037,-0.808594,-0.022705,-0.305176,0.305176,0.183105,2.0,-19.0,-36.0
241753.0,0.613281,-0.808105,-0.022217,-0.610352,0.0,0.0,4.0,-18.0,-32.0
241785.0,0.612183,-0.810547,-0.021118,-0.305176,0.0,0.061035,4.0,-18.0,-32.0
241816.0,0.61145,-0.810059,-0.019531,-0.488281,0.244141,0.061035,4.0,-18.0,-32.0
241848.0,0.614502,-0.807129,-0.023804,-0.305176,0.12207,0.061035,2.0,-20.0,-32.0
241879.0,0.611084,-0.812256,-0.021851,-0.427246,0.061035,0.061035,2.0,-20.0,-32.0
241910.0,0.611816,-0.805542,-0.021973,-0.305176,0.366211,0.183105,2.0,-20.0,-32.0
241942.0,0.612915,-0.810913,-0.021973,-0.244141,0.427246,0.244141,1.0,-19.0,-32.0
241974.0,0.610962,-0.807983,-0.021973,-0.12207,0.061035,0.061035,1.0,-19.0,-32.0
242005.0,0.613159,-0.809814,-0.022827,0.0,0.12207,0.305176,1.0,-19.0,-32.0
242037.0,0.611084,-0.810181,-0.023804,0.0,0.183105,0.12207,4.0,-20.0,-33.0
242068.0,0.612915,-0.808838,-0.024658,-0.12207,0.366211,0.183105,4.0,-20.0,-33.0
242100.0,0.613281,-0.80835,-0.022217,-0.183105,0.061035,-0.12207,4.0,-20.0,-33.0
242132.0,0.611328,-0.809448,-0.023437,-0.183105,0.12207,0.061035,2.0,-19.0,-35.0
242163.0,0.612915,-0.80835,-0.023804,-0.244141,0.549316,0.12207,2.0,-19.0,-35.0
242194.0,0.612915,-0.809937,-0.021973,-0.183105,0.244141,0.183105,2.0,-19.0,-35.0
242226.0,0.611938,-0.808105,-0.025269,-0.183105,0.0,0.183105,3.0,-19.0,-34.0
242257.0,0.612915,-0.808105,-0.023071,-0.366211,0.244141,0.12207,3.0,-19.0,-34.0
242288.0,0.613525,-0.809326,-0.023926,-0.427246,0.0,-0.12207,3.0,-19.0,-34.0
242319.0,0.612061,-0.809448,-0.023926,-0.427246,0.061035,0.061035,3.0,-19.0,-34.0
242351.0,0.612549,-0.810913,-0.022949,-0.244141,0.305176,0.12207,6.0,-20.0,-33.0
242382.0,0.613647,-0.808594,-0.024292,-0.244141,0.305176,0.061035,6.0,-20.0,-33.0
242413.0,0.611816,-0.810669,-0.022949,-0.244141,0.061035,0.183105,6.0,-20.0,-33.0
242445.0,0.61438,-0.807495,-0.02478,-0.244141,-0.12207,0.061035,3.0,-19.0,-31.0
242477.0,0.611206,-0.808716,-0.023193,-0.12207,0.12207,-0.061035,3.0,-19.0,-31.0
242508.0,0.611328,-0.809937,-0.022583,-0.305176,0.610352,0.183105,3.0,-19.0,-31.0
242540.0,0.614624,-0.807007,-0.025757,0.061035,0.305176,0.12207,2.0,-17.0,-38.0
242571.0,0.609497,-0.808716,-0.02356,0.0,0.244141,0.061035,2.0,-17.0,-38.0
242602.0,0.613403,-0.807373,-0.025024,0.366211,0.732422,0.366211,2.0,-17.0,-38.0
242634.0,0.610352,-0.811279,-0.025146,0.366211,0.366211,0.366211,3.0,-19.0,-36.0
242665.0,0.615234,-0.805054,-0.025391,0.549316,0.610352,0.488281,3.0,-19.0,-36.0
242696.0,0.614136,-0.811401,-0.026123,0.610352,0.305176,0.366211,3.0,-19.0,-36.0
242728.0,0.610718,-0.807007,-0.026855,0.610352,0.671387,0.366211,5.0,-18.0,-28.0
242759.0,0.616577,-0.809082,-0.02771,0.610352,1.098633,0.488281,5.0,-18.0,-28.0
242790.0,0.613647,-0.807861,-0.027954,0.549316,0.244141,0.061035,5.0,-18.0,-28.0
242822.0,0.611084,-0.80835,-0.029541,0.488281,0.183105,0.366211,3.0,-19.0,-38.0
242853.0,0.61377,-0.808228,-0.030029,0.427246,0.732422,0.305176,3.0,-19.0,-38.0
242883.0,0.613647,-0.80835,-0.029663,0.427246,0.671387,0.366211,3.0,-19.0,-38.0
242914.0,0.615112,-0.806763,-0.030518,0.427246,0.610352,0.183105,5.0,-19.0,-37.0
242945.0,0.614136,-0.808105,-0.030518,0.305176,0.488281,0.183105,5.0,-19.0,-37.0
242976.0,0.61377,-0.808594,-0.03125,0.366211,0.244141,0.183105,5.0,-19.0,-37.0
243007.0,0.614136,-0.807373,-0.031006,0.427246,0.305176,0.183105,5.0,-19.0,-37.0
243039.0,0.614136,-0.807739,-0.033325,0.244141,0.488281,0.244141,6.0,-20.0,-32.0
243070.0,0.614502,-0.805298,-0.033081,0.12207,0.488281,0.12207,6.0,-20.0,-32.0
243101.0,0.614258,-0.807861,-0.031982,0.305176,0.183105,0.183105,6.0,-20.0,-32.0
243133.0,0.613647,-0.804199,-0.032715,0.305176,0.244141,0.0,5.0,-18.0,-39.0
243164.0,0.612549,-0.81189,-0.033203,0.244141,0.305176,0.061035,5.0,-18.0,-39.0
243195.0,0.614868,-0.806396,-0.032349,0.244141,0.12207,0.061035,5.0,-18.0,-39.0
243227.0,0.614502,-0.806519,-0.035645,0.427246,0.183105,0.244141,3.0,-17.0,-37.0
243258.0,0.612061,-0.808716,-0.034668,0.183105,0.305176,0.061035,3.0,-17.0,-37.0
243289.0,0.615967,-0.806885,-0.036499,0.183105,0.366211,0.305176,3.0,-17.0,-37.0
243321.0,0.612427,-0.808472,-0.035522,0.0,0.183105,0.183105,4.0,-19.0,-33.0
243352.0,0.614136,-0.80542,-0.034912,0.061035,0.488281,0.366211,4.0,-19.0,-33.0
243383.0,0.616577,-0.80542,-0.036133,-0.12207,0.183105,0.244141,4.0,-19.0,-33.0
243415.0,0.614746,-0.808105,-0.036255,-0.244141,0.061035,0.061035,5.0,-19.0,-33.0
243446.0,0.613525,-0.806396,-0.035645,-0.305176,0.305176,0.0,5.0,-19.0,-33.0
243477.0,0.613647,-0.807373,-0.0354,-0.305176,0.305176,0.12207,5.0,-19.0,-33.0
243510.0,0.615112,-0.807617,-0.036743,-0.244141,0.305176,0.0,2.0,-20.0,-35.0
243542.0,0.614136,-0.80542,-0.034912,-0.427246,-0.061035,0.061035,2.0,-20.0,-35.0
243573.0,0.613647,-0.808228,-0.039185,-0.183105,0.12207,0.244141,2.0,-20.0,-35.0
243605.0,0.615234,-0.807861,-0.03479,-0.427246,0.244141,0.061035,3.0,-19.0,-34.0
243636.0,0.614868,-0.805298,-0.037476,-0.12207,0.183105,0.244141,3.0,-19.0,-34.0
243667.0,0.613525,-0.806519,-0.035522,-0.183105,0.183105,0.061035,3.0,-19.0,-34.0
243699.0,0.615112,-0.805298,-0.036987,-0.061035,0.305176,0.12207,3.0,-17.0,-36.0
243730.0,0.613525,-0.807251,-0.036255,0.0,0.488281,0.183105,3.0,-17.0,-36.0
243761.0,0.614868,-0.804565,-0.03833,0.183105,0.183105,0.061035,3.0,-17.0,-36.0
243796.0,0.611938,-0.80835,-0.037109,0.549316,0.427246,0.183105,2.0,-18.0,-36.0
243827.0,0.616333,-0.80188,-0.039673,0.549316,0.305176,-0.12207,2.0,-18.0,-36.0
243858.0,0.607788,-0.807983,-0.033691,1.159668,0.061035,0.12207,2.0,-18.0,-36.0
243889.0,0.616455,-0.806885,-0.041138,1.770019,0.976562,0.488281,2.0,-18.0,-36.0
243921.0,0.614258,-0.802002,-0.035156,2.441406,1.281738,0.488281,5.0,-19.0,-35.0
243952.0,0.613647,-0.807983,-0.039429,4.577637,1.220703,0.366211,5.0,-19.0,-35.0
243983.0,0.600586,-0.811157,-0.026245,6.774902,2.807617,-0.12207,5.0,-19.0,-35.0
244015.0,0.604736,-0.794189,-0.03125,11.108397,7.080078,0.12207,5.0,-21.0,-38.0
244046.0,0.597778,-0.805542,-0.02417,15.624999,9.765625,0.793457,5.0,-21.0,-38.0
244077.0,0.579102,-0.820679,-0.032104,21.972654,7.019042,3.784179,5.0,-21.0,-38.0
244109.0,0.564941,-0.827026,-0.044922,27.282713,11.108397,8.117676,5.0,-19.0,-33.0
244140.0,0.608276,-0.790161,-0.095947,30.639647,15.136718,10.620116,5.0,-19.0,-33.0
244171.0,0.658813,-0.755371,-0.113037,43.334957,9.216309,11.840819,5.0,-19.0,-33.0
244203.0,0.65918,-0.757935,-0.189575,49.072262,-9.70459,7.263183,11.0,-19.0,-33.0
244237.0,0.585815,-0.778809,-0.19043,54.931637,-10.375976,7.507324,11.0,-19.0,-33.0
244268.0,0.564819,-0.787598,-0.19812,57.800289,5.981445,13.97705,11.0,-19.0,-33.0
244300.0,0.663208,-0.757568,-0.168335,60.302731,10.620116,9.521484,11.0,-18.0,-35.0
244332.0,0.667236,-0.69751,-0.123657,54.931637,21.118162,13.610839,11.0,-18.0,-35.0
244363.0,0.740723,-0.63501,-0.268188,50.415035,14.648437,12.268065,11.0,-18.0,-35.0
244395.0,0.725952,-0.643066,-0.301514,49.438473,4.516602,10.742187,14.0,-15.0,-34.0
244426.0,0.63623,-0.761963,-0.28186,33.569336,7.324218,10.437011,14.0,-15.0,-34.0
244457.0,0.574585,-0.832886,-0.460815,26.550291,27.465818,11.352538,14.0,-15.0,-34.0
244490.0,0.7948,-0.636108,-0.419678,14.404296,46.508785,-14.282226,19.0,-14.0,-29.0
244521.0,0.790405,-0.60498,-0.432617,4.455566,17.028809,-43.518063,19.0,-14.0,-29.0
244554.0,0.653931,-0.693359,-0.454224,-14.526366,6.408691,-59.082027,19.0,-14.0,-29.0
244586.0,0.54834,-0.856689,-0.4104,-29.846189,-3.173828,-70.800781,14.0,-14.0,-36.0
244618.0,0.49646,-0.791626,-0.430298,-36.804199,9.521484,-79.040527,14.0,-14.0,-36.0
244649.0,0.590942,-0.707642,-0.384888,-55.664059,30.395506,-81.909172,14.0,-14.0,-36.0
244681.0,0.568726,-0.750366,-0.339478,-58.1665,8.117676,-82.702629,10.0,-14.0,-31.0
244713.0,0.379883,-0.853394,-0.272339,-57.861324,-0.427246,-77.392578,10.0,-14.0,-31.0
244744.0,0.196777,-1.03418,-0.213745,-55.480953,9.155273,-64.025879,10.0,-14.0,-31.0
244778.0,0.339844,-0.870972,-0.188232,-50.781246,35.827637,-52.917477,7.0,-11.0,-37.0
244809.0,0.372314,-0.882446,-0.181396,-37.597656,34.301758,-50.47607,7.0,-11.0,-37.0
244840.0,0.347656,-0.887329,-0.203979,-30.029295,16.052246,-47.119137,7.0,-11.0,-37.0
244871.0,0.103516,-1.074585,-0.134155,-25.085447,10.681151,-38.146973,7.0,-11.0,-37.0
244903.0,0.2771,-0.921875,-0.213257,-21.179197,26.855467,-35.461426,2.0,-11.0,-34.0
244935.0,0.201538,-0.979858,-0.147461,-16.174316,20.019531,-36.682129,2.0,-11.0,-34.0
244966.0,0.199463,-0.959839,-0.163452,-9.155273,18.493652,-29.663084,2.0,-11.0,-34.0
244998.0,0.173828,-0.984497,-0.186523,-7.324218,12.390136,-24.902342,1.0,-9.0,-36.0
245030.0,0.205811,-0.963135,-0.185791,-7.263183,18.249512,-26.245115,1.0,-9.0,-36.0
245061.0,0.185059,-0.96167,-0.188843,-5.493164,6.103515,-22.216795,1.0,-9.0,-36.0
245093.0,0.103027,-0.995728,-0.177246,-7.629394,11.901855,-18.554687,-1.0,-8.0,-39.0
245125.0,0.166626,-0.972046,-0.177612,-5.249023,18.859863,-16.601562,-1.0,-8.0,-39.0
245155.0,0.161987,-0.985596,-0.166138,-1.831055,15.258788,-18.493652,-1.0,-8.0,-39.0
245188.0,0.112061,-0.987915,-0.183716,-4.821777,4.516602,-16.418457,1.0,-8.0,-39.0
245220.0,0.126709,-0.994263,-0.198486,-5.859375,3.723144,-16.479492,1.0,-8.0,-39.0
245251.0,0.091309,-0.982056,-0.181152,-8.422852,9.216309,-16.784668,1.0,-8.0,-39.0
245283.0,0.071777,-0.991821,-0.147461,-7.995605,16.296387,-13.793944,0.0,-7.0,-38.0
245314.0,0.103882,-0.981812,-0.156616,-5.615234,8.850098,-11.596679,0.0,-7.0,-38.0
245345.0,0.092163,-0.991089,-0.158447,-1.770019,0.0,-9.033203,0.0,-7.0,-38.0
245377.0,0.050049,-1.012939,-0.159058,-0.671387,-4.638672,-6.408691,1.0,-7.0,-33.0
245409.0,0.07019,-0.988281,-0.178467,-3.784179,-5.737304,-0.610352,1.0,-7.0,-33.0
245440.0,0.061401,-0.995728,-0.166626,-5.065917,-0.244141,1.831055,1.0,-7.0,-33.0
245472.0,0.075317,-0.993286,-0.139771,-2.990722,1.464844,2.258301,2.0,-5.0,-37.0
245503.0,0.077759,-0.995239,-0.142334,1.403808,-2.685547,4.821777,2.0,-5.0,-37.0
245534.0,0.064697,-0.990967,-0.150757,3.845215,-4.089355,6.347656,2.0,-5.0,-37.0
245567.0,0.098877,-0.997437,-0.180176,3.601074,-1.159668,5.432128,0.0,-8.0,-37.0
245602.0,0.09082,-0.993042,-0.167603,-0.061035,-2.258301,3.845215,0.0,-8.0,-37.0
245634.0,0.094482,-0.998413,-0.164917,-0.610352,-0.305176,3.051758,0.0,-8.0,-37.0
245667.0,0.092163,-0.997681,-0.153442,-1.342773,-0.366211,2.258301,0.0,-10.0,-35.0
245698.0,0.111084,-0.988281,-0.161255,-0.915527,-6.408691,0.488281,0.0,-10.0,-35.0
245729.0,0.056885,-1.01416,-0.154541,-2.868652,-5.92041,0.366211,0.0,-10.0,-35.0
245761.0,0.08374,-0.985962,-0.161987,-3.540039,-1.770019,3.051758,0.0,-7.0,-35.0
245793.0,0.120117,-0.984619,-0.162109,-2.624511,-0.549316,2.380371,0.0,-7.0,-35.0
245824.0,0.088745,-1.00354,-0.148193,-2.075195,-1.281738,2.01416,0.0,-7.0,-35.0
245855.0,0.108154,-0.984741,-0.16333,-1.037598,-3.479004,2.868652,0.0,-7.0,-35.0
245887.0,0.099487,-1.00415,-0.162964,-2.868652,-0.244141,1.770019,2.0,-7.0,-37.0
245918.0,0.093994,-0.983887,-0.151489,-3.723144,1.586914,1.770019,2.0,-7.0,-37.0
245950.0,0.099609,-1.005737,-0.14978,-3.173828,2.319336,2.807617,2.0,-7.0,-37.0
245982.0,0.129761,-0.985596,-0.152466,-3.234863,0.732422,-0.366211,1.0,-8.0,-35.0
246014.0,0.085571,-0.999268,-0.14209,-2.075195,0.366211,0.061035,1.0,-8.0,-35.0
246045.0,0.105835,-0.994141,-0.150024,-1.770019,3.356933,0.549316,1.0,-8.0,-35.0
246078.0,0.109497,-0.992432,-0.153198,-2.441406,1.525879,-0.610352,1.0,-6.0,-37.0
246109.0,0.094971,-0.996338,-0.152954,-3.90625,2.075195,-0.610352,1.0,-6.0,-37.0
246141.0,0.112183,-1.000732,-0.143555,-4.638672,4.455566,-1.403808,1.0,-6.0,-37.0
246173.0,0.086792,-0.99707,-0.130005,-4.699707,1.403808,-1.037598,0.0,-8.0,-35.0
246204.0,0.085571,-1.001099,-0.132202,-2.746582,1.647949,1.220703,0.0,-8.0,-35.0
246235.0,0.104736,-0.987183,-0.132812,-1.770019,3.417969,1.525879,0.0,-8.0,-35.0
246267.0,0.07373,-1.007568,-0.133789,0.061035,3.234863,1.098633,0.0,-6.0,-39.0
246298.0,0.139648,-0.977051,-0.161011,0.854492,2.990722,1.098633,0.0,-6.0,-39.0
246329.0,0.119873,-1.001465,-0.133667,-0.793457,1.586914,-2.441406,0.0,-6.0,-39.0
246361.0,0.141846,-0.993652,-0.149048,-0.305176,0.366211,-3.662109,1.0,-7.0,-34.0
246393.0,0.088379,-1.017944,-0.143066,-2.319336,2.685547,-7.8125,1.0,-7.0,-34.0
246424.0,0.139038,-0.989746,-0.164917,-4.394531,4.821777,-10.864257,1.0,-7.0,-34.0
246457.0,0.074951,-1.003052,-0.134766,-5.859375,8.422852,-20.1416,0.0,-5.0,-37.0
246489.0,0.091919,-0.993408,-0.148437,-7.446289,5.371093,-25.634764,0.0,-5.0,-37.0
246520.0,0.007202,-1.012939,-0.123047,-6.16455,-2.807617,-25.817869,0.0,-5.0,-37.0
246553.0,0.028564,-1.008179,-0.116577,-3.540039,-1.953125,-24.536131,0.0,-6.0,-31.0
246584.0,-0.002197,-0.994019,-0.109009,-3.90625,-2.01416,-23.254393,0.0,-6.0,-31.0
246617.0,-0.031006,-1.005371,-0.098877,1.220703,3.234863,-18.005371,0.0,-6.0,-31.0
246649.0,-0.012939,-0.981567,-0.106689,2.807617,7.202148,-12.451171,0.0,-5.0,-31.0
246680.0,0.001587,-1.002563,-0.136841,3.784179,8.178711,-10.986327,0.0,-5.0,-31.0
246713.0,0.014404,-0.987061,-0.130127,0.061035,5.432128,-9.58252,0.0,-5.0,-31.0
246745.0,0.043335,-0.988525,-0.174316,-2.380371,-1.831055,-10.19287,0.0,-4.0,-38.0
246777.0,-0.041626,-1.019165,-0.122925,-4.02832,-4.882812,-10.009766,0.0,-4.0,-38.0
246808.0,0.032349,-0.979248,-0.11145,0.610352,-18.676758,-6.896972,0.0,-4.0,-38.0
246839.0,-0.109497,-1.026245,-0.115356,1.281738,-20.202635,-3.90625,0.0,-4.0,-38.0
246871.0,-0.054321,-0.999878,-0.135132,4.272461,-18.981934,8.483887,-1.0,-6.0,-37.0
246902.0,-0.070068,-1.003296,-0.134521,3.723144,-7.263183,10.742187,-1.0,-6.0,-37.0
246933.0,-0.026245,-1.015991,-0.122192,4.455566,-3.417969,20.324705,-1.0,-6.0,-37.0
246966.0,-0.018311,-0.994263,-0.137329,7.93457,-9.399414,25.268553,-1.0,-7.0,-34.0
247000.0,-0.005249,-0.994507,-0.124023,9.399414,-11.413573,30.2124,-1.0,-7.0,-34.0
247031.0,0.102417,-0.973389,-0.154053,11.291503,-15.686034,31.188963,-1.0,-7.0,-34.0
247064.0,0.130615,-1.004883,-0.153931,13.061522,-16.113281,28.320311,0.0,-7.0,-34.0
247095.0,0.067871,-0.980469,-0.184814,8.239746,-11.901855,18.920898,0.0,-7.0,-34.0
247126.0,0.098755,-0.995972,-0.180054,4.211426,-1.647949,20.446775,0.0,-7.0,-34.0
247159.0,0.117065,-0.992798,-0.174072,3.417969,-8.850098,15.380858,-2.0,-8.0,-38.0
247190.0,0.059692,-0.981079,-0.114014,9.094238,-12.939452,18.371582,-2.0,-8.0,-38.0
247221.0,0.04895,-1.014771,-0.130371,16.357422,1.464844,22.521971,-2.0,-8.0,-38.0
247253.0,0.107666,-0.990967,-0.186157,19.592285,11.596679,27.282713,1.0,-9.0,-33.0
247284.0,0.146118,-0.993164,-0.228516,14.404296,13.183593,27.832029,1.0,-9.0,-33.0
247318.0,0.232788,-0.971802,-0.247437,5.249023,17.150879,16.662598,1.0,-9.0,-33.0
247350.0,0.184082,-1.003906,-0.237671,1.953125,14.160155,-2.746582,5.0,-10.0,-35.0
247381.0,0.247314,-0.991211,-0.238647,-6.347656,29.296873,-33.508301,5.0,-10.0,-35.0
247412.0,0.276978,-0.906372,-0.236694,-6.04248,30.273436,-69.152832,5.0,-10.0,-35.0
247444.0,-0.014771,-0.998047,-0.179932,-5.981445,29.479979,-100.708,1.0,-7.0,-37.0
247475.0,0.134521,-0.98877,-0.20813,-3.967285,20.1416,-97.045891,1.0,-7.0,-37.0
247507.0,-0.040405,-0.919678,-0.244507,-6.225585,22.3999,-111.938469,1.0,-7.0,-37.0
247539.0,-0.041992,-0.990845,-0.174683,-19.775391,43.212887,-99.792473,0.0,-2.0,-36.0
247571.0,-0.089966,-1.005981,-0.341187,-25.329588,34.667969,-105.529778,0.0,-2.0,-36.0
247606.0,-0.340454,-0.845459,-0.103882,-29.052732,31.372068,-90.454094,0.0,-2.0,-36.0
247639.0,-0.456543,-0.905884,-0.013794,-13.366698,33.02002,-69.030762,0.0,1.0,-36.0
247670.0,-0.437134,-0.964233,-0.198486,3.540039,14.404296,-16.662598,0.0,1.0,-36.0
247702.0,-0.47876,-1.005249,-0.185913,23.681639,31.005857,44.189449,0.0,1.0,-36.0
247735.0,-0.460815,-1.369385,-0.078857,49.194332,32.531738,95.642082,0.0,0.0,-37.0
247768.0,-0.27002,-2.558838,0.226074,44.006344,38.085937,161.193832,0.0,0.0,-37.0
247799.0,0.677368,-2.571167,-0.125,24.108885,89.355461,237.060532,0.0,0.0,-37.0
247831.0,0.527222,-1.271851,-1.189575,7.629394,104.49218,257.080078,-1.0,5.0,-37.0
247862.0,-3.999878,-1.873535,-1.527344,17.333984,-28.137205,-227.294907,-1.0,5.0,-37.0
247894.0,-2.213257,-2.25769,-1.133545,10.681151,62.438961,-411.865204,-1.0,5.0,-37.0
247927.0,0.760864,-1.774658,-0.342285,-15.86914,174.377426,-350.158661,7.0,12.0,-32.0
247959.0,3.322266,1.398071,1.030151,-50.292965,82.214348,-312.744141,7.0,12.0,-32.0
247990.0,2.895142,1.874512,0.471069,-10.925292,-32.104492,-102.905266,7.0,12.0,-32.0
248022.0,2.17981,1.146484,0.42749,24.841307,-28.686522,161.743149,5.0,9.0,-36.0
248056.0,1.061523,0.051147,0.214111,48.889156,-63.84277,243.164047,5.0,9.0,-36.0
248090.0,-0.365845,-1.658813,-0.455444,-15.136718,-33.874512,267.63916,5.0,9.0,-36.0
248122.0,-1.11499,-1.433716,-0.313232,-33.508301,28.625486,134.643555,2.0,5.0,-36.0
248153.0,-1.216675,-0.355713,-0.224609,11.779784,-21.423338,92.956535,2.0,5.0,-36.0
248186.0,2.641479,-3.344238,-0.163818,-17.578125,50.415035,-183.959946,2.0,5.0,-36.0
248219.0,-0.850098,-0.266968,-1.062256,-43.945309,-145.996094,-75.317383,2.0,8.0,-37.0
248251.0,-0.310181,-2.852417,-0.7229,-57.128902,136.291504,82.458488,2.0,8.0,-37.0
248283.0,-0.506958,-1.449585,1.69812,-113.098137,71.166992,-102.60009,2.0,8.0,-37.0
248316.0,-0.171265,-1.234985,0.632812,-28.991697,-184.509262,-23.254393,0.0,8.0,-29.0
248350.0,-0.910767,0.427734,-0.684814,-35.339355,-89.355461,-75.134277,0.0,8.0,-29.0
248382.0,0.226685,-1.570435,-0.603638,17.63916,46.813961,142.333984,0.0,8.0,-29.0
248414.0,-0.253052,-1.693115,0.242187,-16.540527,-8.239746,-59.631344,0.0,5.0,-34.0
248445.0,-0.434448,-0.45166,-0.222412,42.907711,-10.864257,74.707031,0.0,5.0,-34.0
248477.0,-0.53418,-1.734741,-0.093628,55.908199,33.447266,121.398918,0.0,5.0,-34.0
248508.0,-0.137329,-2.972168,0.388306,82.153313,44.189449,176.147446,0.0,5.0,-34.0
248540.0,1.676147,-3.003784,0.033569,39.916992,38.452148,176.208481,0.0,5.0,-34.0
248571.0,-2.614014,-1.217163,-1.707764,26.489256,-3.662109,-82.94677,0.0,5.0,-34.0
248602.0,-3.108765,-3.171387,-1.652344,-15.624999,53.833004,-488.586395,0.0,5.0,-34.0
248634.0,-0.175659,-3.402832,-0.86084,-36.560059,106.994621,-485.046356,4.0,9.0,-36.0
248665.0,4.0,1.751831,1.102295,-50.842281,-41.931149,-381.591766,4.0,9.0,-36.0
248697.0,3.933716,3.401611,1.060181,10.0708,-9.643555,-133.728027,4.0,9.0,-36.0
248729.0,3.397095,1.478027,0.883911,45.410152,-23.010252,321.777313,7.0,10.0,-39.0
248760.0,1.375244,-0.69751,0.075317,115.295403,-12.817382,506.896942,7.0,10.0,-39.0
248794.0,-1.581665,-3.999878,-1.062256,37.109375,26.672361,302.612305,7.0,10.0,-39.0
248826.0,-3.094238,-0.435913,0.043823,-50.781246,2.929687,185.913071,3.0,5.0,-34.0
248857.0,-1.3125,-0.845215,0.013672,-23.986814,79.772949,55.541988,3.0,5.0,-34.0
248887.0,-0.412964,-3.290771,0.012207,-18.920898,-131.652832,-253.96727,3.0,5.0,-34.0
248919.0,2.108154,-0.466919,-1.665771,-38.452148,-95.581047,-57.861324,2.0,4.0,-36.0
248950.0,-0.234741,-2.853882,-1.587646,-5.859375,125.732414,-63.293453,2.0,4.0,-36.0
248981.0,-0.740601,-1.431152,1.515381,-115.051262,183.65477,-148.986816,2.0,4.0,-36.0
249014.0,-0.162476,-0.992187,0.384033,-47.302242,-138.85498,21.850584,4.0,8.0,-35.0
249046.0,-0.642456,-1.070557,0.163818,11.352538,-16.235352,-48.522945,4.0,8.0,-35.0
249077.0,-0.21814,-1.021851,-0.122314,11.840819,24.108885,15.930175,4.0,8.0,-35.0
249109.0,-0.441406,-0.921631,-0.094482,9.82666,-29.479979,6.774902,4.0,8.0,-34.0
249140.0,-0.410156,-1.066162,-0.05481,48.706051,-0.488281,66.772461,4.0,8.0,-34.0
249171.0,-0.617676,-1.588013,-0.022583,57.373043,-0.183105,96.374504,4.0,8.0,-34.0
249203.0,-0.314697,-2.369019,0.025391,46.874996,29.663084,135.070801,2.0,7.0,-36.0
249234.0,1.580078,-3.09729,-0.373901,19.104004,39.001465,163.085922,2.0,7.0,-36.0
249266.0,-1.631714,-0.565918,-1.620605,-24.475096,-138.793945,155.151367,2.0,7.0,-36.0
249299.0,-3.766357,-2.717651,-1.85376,13.793944,-40.832516,-468.505829,3.0,4.0,-36.0
249331.0,-1.777466,-3.122681,-0.956665,10.498046,166.686996,-419.250458,3.0,4.0,-36.0
249362.0,2.585083,-1.636841,0.154419,-95.336906,121.398918,-415.161102,3.0,4.0,-36.0
249393.0,4.0,2.277344,0.972656,-85.021965,-84.167473,-301.269531,3.0,4.0,-36.0
249426.0,3.963989,1.863892,1.066284,34.362793,-39.18457,55.297848,9.0,10.0,-34.0
249458.0,2.749268,0.961792,0.498779,22.15576,-17.028809,393.066376,9.0,10.0,-34.0
249489.0,0.796509,-1.450073,0.109741,62.438961,69.396973,516.113281,9.0,10.0,-34.0
249521.0,-1.651855,-3.743652,-0.900635,-33.081055,-16.357422,263.000488,5.0,7.0,-28.0
249553.0,-2.687256,-0.610962,-0.521729,3.356933,-133.483887,175.048813,5.0,7.0,-28.0
249584.0,-2.035278,-2.911377,-0.745728,30.273436,-4.516602,-123.779289,5.0,7.0,-28.0
249618.0,2.61853,-0.650635,-0.332397,-85.510246,-42.724606,-84.777824,0.0,5.0,-34.0
249649.0,-0.867432,-2.174927,-1.251953,-26.733397,5.798339,-135.742187,0.0,5.0,-34.0
249680.0,0.431519,-2.360352,-0.499756,-67.565918,150.512695,-94.90966,0.0,5.0,-34.0
249713.0,-1.217285,2.215576,0.870972,-1.464844,106.323235,-43.029781,1.0,7.0,-35.0
249744.0,0.22876,-2.47876,-1.18335,-1.342773,-121.154778,144.348145,1.0,7.0,-35.0
249776.0,-0.515137,-0.324341,0.129395,-17.39502,22.521971,-140.014648,1.0,7.0,-35.0
249808.0,-0.514771,-1.092773,0.018066,38.757324,11.596679,62.622066,0.0,9.0,-31.0
249839.0,-0.277222,-0.947998,-0.133301,22.15576,-22.827147,-2.13623,0.0,9.0,-31.0
249870.0,-0.624756,-1.04895,-0.04248,49.255367,3.479004,84.899895,0.0,9.0,-31.0
249902.0,-0.339966,-1.809692,-0.046265,66.894531,3.967285,109.252922,2.0,6.0,-38.0
249935.0,-0.255737,-2.473633,0.193237,52.917477,33.203125,150.32959,2.0,6.0,-38.0
249966.0,1.900269,-2.758301,-0.453247,21.423338,61.401363,229.980453,2.0,6.0,-38.0
249998.0,-3.999878,-1.41626,-1.872192,5.065917,-78.918457,-127.746574,1.0,4.0,-37.0
250031.0,-2.171143,-2.54834,-1.29541,-22.216795,2.13623,-429.321259,1.0,4.0,-37.0
250062.0,0.839111,-2.0802,-0.385742,4.821777,84.533684,-444.824188,1.0,4.0,-37.0
250094.0,3.300293,-0.526245,0.570435,-29.296873,69.213867,-356.140106,8.0,11.0,-33.0
250125.0,4.0,3.675659,0.891602,-97.290031,0.12207,-235.290512,8.0,11.0,-33.0
250156.0,3.817261,1.578735,0.877441,48.583981,-48.33984,281.738281,8.0,11.0,-33.0
250188.0,2.20752,0.54126,0.236206,61.889645,-80.505363,430.725067,5.0,8.0,-36.0
250219.0,-0.124512,-2.478882,-0.310303,90.332024,-69.458008,430.541962,5.0,8.0,-36.0
250250.0,-2.393311,-3.247681,-1.056641,-52.490231,25.390623,218.872055,5.0,8.0,-36.0
250283.0,-2.500732,-0.293335,-0.1521,-37.841797,91.491692,133.789062,0.0,8.0,-34.0
250316.0,-1.95813,-2.73291,-0.366699,-24.414061,-87.09716,-273.193359,0.0,8.0,-34.0
250348.0,3.719604,-0.901245,-1.108521,-19.897461,-124.694817,-37.29248,0.0,8.0,-34.0
250380.0,-2.035767,0.140015,-1.382935,6.469726,-31.616209,-177.9785,4.0,5.0,-39.0
250411.0,1.377075,-3.39856,0.548462,-1.525879,257.202148,175.415024,4.0,5.0,-39.0
250442.0,-1.651123,1.109009,-0.106934,-95.458977,-51.513668,-276.123047,4.0,5.0,-39.0
250473.0,-0.534058,-1.195801,-0.297241,10.803222,-50.903316,30.395506,4.0,5.0,-39.0
250505.0,-0.275757,-0.964111,0.020386,-20.202635,51.879879,-13.183593,3.0,7.0,-34.0
250539.0,-0.432007,-0.880127,-0.182739,6.591796,-44.006344,32.775879,3.0,7.0,-34.0
250570.0,-0.442505,-1.006348,-0.037598,13.488769,7.263183,47.973629,3.0,7.0,-34.0
250602.0,-0.571411,-1.629761,-0.171753,68.359375,0.610352,78.24707,3.0,6.0,-35.0
250633.0,-0.316162,-1.824219,0.03186,43.762203,34.606934,92.102043,3.0,6.0,-35.0
250664.0,-0.131592,-2.2052,0.293701,50.659176,43.579098,175.598129,3.0,6.0,-35.0
250696.0,2.047607,-2.903931,-0.446411,25.329588,54.748531,253.478989,2.0,9.0,-32.0
250727.0,-2.921265,-0.937134,-1.94873,26.672361,-13.366698,-16.479492,2.0,9.0,-32.0
250758.0,-2.963379,-2.321533,-1.243652,-31.066893,65.490723,-417.175262,2.0,9.0,-32.0
250790.0,-0.931641,-3.240601,-0.497803,-45.715328,153.076172,-427.490204,8.0,11.0,-31.0
250821.0,2.169312,-0.760864,0.411255,-74.157715,82.519524,-393.554657,8.0,11.0,-31.0
250852.0,3.896606,2.982666,0.880371,-123.229973,-70.922852,-327.819794,8.0,11.0,-31.0
250885.0,3.994629,1.984619,0.749268,7.751464,-22.15576,-23.010252,11.0,15.0,-30.0
250916.0,2.940308,1.081787,0.357422,-3.356933,-95.458977,336.852997,11.0,15.0,-30.0
250947.0,1.69812,-0.917969,-0.206787,56.701656,-91.125481,499.145477,11.0,15.0,-30.0
250979.0,-0.784668,-3.999878,-1.939209,13.183593,-100.158684,294.73877,3.0,5.0,-36.0
251010.0,-2.820801,-0.504883,-0.470093,-48.156734,-4.333496,176.208481,3.0,5.0,-36.0
251041.0,-2.683594,-2.401489,-0.369995,58.715816,50.781246,32.958984,3.0,5.0,-36.0
251074.0,4.0,-0.998779,-1.269653,-123.535149,-49.133297,-172.241196,1.0,7.0,-35.0
251106.0,-2.692993,-1.279907,-0.602173,31.921385,-44.799801,-186.706528,1.0,7.0,-35.0
251137.0,0.729004,-3.629272,1.244263,-62.988277,178.344711,12.451171,1.0,7.0,-35.0
251169.0,-0.802734,1.038086,-0.232666,-50.964352,-51.269527,-167.053207,3.0,7.0,-38.0
251200.0,-0.508057,-1.303833,-0.044067,27.282713,-15.075683,36.804199,3.0,7.0,-38.0
251231.0,-0.287354,-0.769043,-0.106079,-10.559081,5.004883,-32.043457,3.0,7.0,-38.0
251264.0,-0.352539,-1.073242,-0.19519,3.90625,-45.288082,28.381346,1.0,7.0,-32.0
251295.0,-0.45874,-0.956787,-0.003296,8.422852,-16.723633,41.320797,1.0,7.0,-32.0
251326.0,-0.517456,-1.288086,-0.130981,34.118652,-1.403808,81.909172,1.0,7.0,-32.0
251357.0,-0.339844,-1.572876,-0.140015,41.442867,5.737304,108.703606,1.0,7.0,-32.0
251389.0,-0.438232,-1.955688,0.235229,41.320797,35.644531,168.15184,2.0,4.0,-33.0
251420.0,1.628906,-3.283447,-0.114258,41.748043,82.336418,240.966782,2.0,4.0,-33.0
251451.0,-2.819702,-1.219849,-2.080566,0.732422,12.08496,199.645981,2.0,4.0,-33.0
251484.0,-2.4729,-2.372559,-1.310181,-72.814941,119.689934,-418.518036,1.0,7.0,-34.0
251516.0,-0.532227,-3.885742,-0.898682,-51.574703,73.486328,-561.279297,1.0,7.0,-34.0
251547.0,2.877563,-0.250366,0.006592,-35.644531,-19.65332,-355.407684,1.0,7.0,-34.0
251579.0,3.697876,2.909058,0.733276,-72.998047,-7.080078,-248.107895,9.0,11.0,-32.0
251610.0,3.699707,1.621582,0.656494,45.288082,25.024412,82.092278,9.0,11.0,-32.0
251641.0,1.928589,0.623047,0.336182,55.175777,-67.871094,288.024902,9.0,11.0,-32.0
251673.0,0.593384,-1.01355,0.015503,77.087402,-66.040039,357.299774,6.0,10.0,-34.0
251704.0,-0.865479,-3.050415,-0.794067,31.127928,4.638672,271.972656,6.0,10.0,-34.0
251739.0,-2.205688,-0.780518,0.00293,-26.367186,-10.375976,165.893539,6.0,10.0,-34.0
251771.0,-2.352051,-0.463135,-0.611694,-17.51709,7.507324,55.114742,2.0,7.0,-37.0
251802.0,3.192017,-3.226318,0.125488,-55.664059,-90.393059,-326.843231,2.0,7.0,-37.0
251834.0,-1.168823,0.082764,-1.180664,-15.014647,-200.927719,-163.330063,2.0,7.0,-37.0
251866.0,-0.156982,-1.619385,-0.593628,-59.692379,127.746574,138.671875,1.0,5.0,-36.0
251897.0,0.601318,-1.238037,-0.09436,-151.245117,-13.427733,-216.003403,1.0,5.0,-36.0
251928.0,-0.200439,-1.536621,0.122925,36.682129,-44.31152,-37.353516,1.0,5.0,-36.0
251960.0,-0.379395,-1.023071,-0.026611,5.004883,56.03027,5.798339,2.0,7.0,-36.0
251992.0,-0.37207,-0.818115,-0.239746,8.972168,-40.100098,15.99121,2.0,7.0,-36.0
252023.0,-0.492554,-1.011353,-0.009644,12.573241,12.145995,34.179687,2.0,7.0,-36.0
252055.0,-0.417603,-1.156738,-0.154907,61.95068,6.469726,68.908691,5.0,4.0,-31.0
252087.0,-0.497192,-1.659668,-0.153809,83.007805,45.898434,87.402336,5.0,4.0,-31.0
252120.0,-0.378418,-2.259399,0.427246,60.05859,79.711914,160.400391,5.0,4.0,-31.0
252152.0,1.335083,-3.095825,-0.071655,43.090816,78.979492,205.505356,4.0,9.0,-35.0
252184.0,-0.26062,-0.692505,-1.839722,12.695312,-22.644041,161.560043,4.0,9.0,-35.0
252215.0,-3.999878,-2.285522,-1.763184,-33.325195,132.385254,-349.365204,4.0,9.0,-35.0
252247.0,-1.228271,-3.020264,-0.773071,-16.113281,132.568359,-417.419403,10.0,15.0,-31.0
252278.0,1.450806,-1.565552,-0.006592,-79.467773,117.431633,-460.021942,10.0,15.0,-31.0
252309.0,3.804688,0.654907,0.953125,-61.279293,-33.508301,-363.891571,10.0,15.0,-31.0
252340.0,4.0,3.412476,1.159668,-52.917477,-36.499023,-205.932602,10.0,15.0,-31.0
252373.0,3.86084,1.402954,1.023071,-34.484863,-144.165039,297.302246,16.0,13.0,-27.0
252404.0,2.6521,0.295654,-0.036255,12.512206,-110.229485,496.582001,16.0,13.0,-27.0
252436.0,-1.277222,-3.999878,-1.973755,7.080078,-35.27832,531.433105,16.0,13.0,-27.0
252470.0,-3.465698,-1.930908,-1.204102,-44.921871,-68.908691,187.499985,3.0,7.0,-35.0
252502.0,-2.392212,-0.762817,-0.884766,65.490723,99.304192,15.563964,3.0,7.0,-35.0
252536.0,4.0,-1.712158,-0.422852,-124.938957,27.9541,-200.805649,3.0,7.0,-35.0
252568.0,-2.678955,0.076538,-0.906616,29.113768,-156.494141,-118.041985,1.0,7.0,-37.0
252600.0,1.693604,-3.277344,0.667603,36.621094,203.002914,34.179687,1.0,7.0,-37.0
252631.0,-2.052856,2.288696,0.063599,-136.657715,8.666992,-309.204102,1.0,7.0,-37.0
252663.0,-0.221802,-1.407837,-0.123779,20.935057,-103.881828,102.172844,1.0,9.0,-34.0
252695.0,-0.311157,-1.460571,-0.016479,-38.269043,24.597166,-52.062984,1.0,9.0,-34.0
252727.0,-0.441406,-1.050415,-0.147217,-7.202148,-53.527828,21.911619,1.0,9.0,-34.0
252760.0,-0.376709,-0.904663,-0.04541,-36.621094,-10.131835,8.239746,0.0,8.0,-33.0
252792.0,-0.486816,-1.200073,-0.025146,13.061522,6.896972,36.621094,0.0,8.0,-33.0
252824.0,-0.412598,-1.228149,-0.009399,29.907225,14.09912,68.42041,0.0,8.0,-33.0
252857.0,-0.284912,-1.72998,0.058716,65.063477,14.953612,105.407707,0.0,5.0,-33.0
252888.0,-0.1698,-2.070435,0.487183,62.255856,33.569336,130.79834,0.0,5.0,-33.0
252919.0,1.709351,-2.994019,-0.310425,51.757809,55.236813,218.68895,0.0,5.0,-33.0
252951.0,-3.153564,-1.12146,-2.092773,-17.272949,-109.069817,13.427733,1.0,5.0,-33.0
252983.0,-2.827148,-1.739868,-1.582153,-18.127441,55.908199,-374.145477,1.0,5.0,-33.0
253015.0,-0.760498,-3.381226,-0.932983,8.483887,190.856918,-466.491669,1.0,5.0,-33.0
253048.0,1.516846,-1.531128,-0.10498,-32.287598,155.029297,-433.776825,10.0,15.0,-29.0
253080.0,4.0,1.399536,0.989502,-90.88134,-42.480465,-324.645966,10.0,15.0,-29.0
253112.0,3.963745,3.206421,1.093994,43.701168,-4.02832,34.179687,10.0,15.0,-29.0
253144.0,3.938721,1.124268,0.941528,13.244628,-115.783684,411.132782,12.0,13.0,-35.0
253177.0,0.649414,-2.538696,-0.543945,74.035645,-50.109859,585.693359,12.0,13.0,-35.0
253209.0,-2.541382,-3.380371,-1.27832,-91.674797,-46.874996,258.117676,12.0,13.0,-35.0
253241.0,-3.59082,-0.889648,-0.534058,43.334957,-1.220703,140.075684,1.0,10.0,-33.0
253272.0,-2.86792,-2.164063,-0.53418,-49.072262,1.098633,-224.670395,1.0,10.0,-33.0
253303.0,3.82312,-1.835205,-0.218384,-78.552246,-148.742676,-106.750481,1.0,10.0,-33.0
253336.0,-1.305664,-1.779175,-0.723267,-63.049313,-106.994621,-99.487297,1.0,7.0,-34.0
253367.0,-0.36731,-0.924194,-0.368286,0.0,141.113281,-19.287109,1.0,7.0,-34.0
253398.0,-0.067261,-0.551392,0.328369,-52.551266,48.767086,-229.797348,1.0,7.0,-34.0
253432.0,-0.622314,-1.039185,0.13623,-8.789063,-3.967285,21.179197,0.0,10.0,-36.0
253463.0,-0.386108,-0.807617,-0.261841,-28.747557,-28.869627,-17.76123,0.0,10.0,-36.0
253494.0,-0.521362,-0.984741,0.010742,-26.916502,-16.357422,7.873535,0.0,10.0,-36.0
253526.0,-0.456665,-1.026001,0.072632,1.708984,-9.399414,23.620604,0.0,10.0,-32.0
253557.0,-0.44812,-1.105225,-0.039429,32.409668,-2.441406,35.461426,0.0,10.0,-32.0
253588.0,-0.472656,-1.30481,-0.131348,68.786621,3.967285,93.261711,0.0,10.0,-32.0
253619.0,-0.44104,-1.935913,0.178589,65.246582,30.517576,109.252922,0.0,10.0,-32.0
253652.0,-0.084229,-1.841675,0.218506,54.870602,61.584469,179.74852,2.0,9.0,-33.0
253683.0,1.35144,-2.768799,-0.713745,56.945797,60.18066,265.563965,2.0,9.0,-33.0
253714.0,-3.999878,-1.223389,-1.899414,-36.804199,-75.561523,-2.01416,2.0,9.0,-33.0
253746.0,-2.440552,-2.259033,-1.615845,9.399414,-12.817382,-330.627411,1.0,7.0,-31.0
253777.0,-1.031738,-3.323975,-0.726074,-9.460449,192.687973,-449.401825,1.0,7.0,-31.0
253808.0,2.929321,-1.160522,-0.050781,-26.489256,10.925292,-415.344208,1.0,7.0,-31.0
253840.0,4.0,3.20752,0.939209,-29.174803,-33.569336,-290.893555,11.0,15.0,-34.0
253872.0,3.968506,1.908447,1.088989,70.19043,-39.489746,135.070801,11.0,15.0,-34.0
253903.0,2.394287,0.402466,0.312378,40.893551,-121.948235,328.124969,11.0,15.0,-34.0
253935.0,-0.081299,-2.181396,-0.372681,81.848137,-48.828121,458.618134,7.0,11.0,-35.0
253967.0,-1.389771,-3.265625,-0.630493,-69.274902,94.238274,213.073715,7.0,11.0,-35.0
253998.0,-1.884766,-0.168213,0.179687,-9.277344,-1.342773,176.513657,7.0,11.0,-35.0
254031.0,-2.399536,-1.790894,-0.768677,-1.464844,-89.782707,-102.783195,5.0,11.0,-32.0
254062.0,3.602173,-2.505737,-0.321533,-134.155273,-25.207518,-132.69043,5.0,11.0,-32.0
254093.0,-1.666016,-2.228271,-1.042969,47.729488,-118.652336,-148.010254,5.0,11.0,-32.0
254125.0,-0.175537,-1.264648,0.230591,-93.811028,152.893066,33.569336,3.0,11.0,-34.0
254159.0,0.472168,-2.856201,0.781494,-82.336418,-87.402336,-36.682129,3.0,11.0,-34.0
254193.0,-0.576172,-0.846802,0.220703,20.812986,-31.738279,-64.331055,3.0,11.0,-34.0
254226.0,-0.348999,-1.098755,-0.035278,-3.356933,25.085447,48.46191,4.0,11.0,-33.0
254257.0,-0.450195,-0.869019,0.113647,20.507811,-39.001465,28.503416,4.0,11.0,-33.0
254288.0,-0.528564,-1.09082,-0.071899,64.39209,14.526366,104.73632,4.0,11.0,-33.0
254320.0,-0.400635,-1.875,-0.005371,85.266106,0.549316,108.581535,3.0,10.0,-36.0
254351.0,-0.428711,-2.368408,0.067993,65.734863,60.302731,149.291992,3.0,10.0,-36.0
254382.0,2.264648,-2.623779,-0.405273,22.15576,63.659664,222.900375,3.0,10.0,-36.0
254414.0,-3.718018,-1.388916,-1.932983,15.258788,-100.891106,87.280266,2.0,8.0,-29.0
254446.0,-1.83667,-2.083862,-1.159546,-11.718749,78.796387,-395.385712,2.0,8.0,-29.0
254478.0,-1.104614,-3.396484,-0.822754,-10.31494,132.385254,-458.801239,2.0,8.0,-29.0
254510.0,1.981445,-1.210815,-0.064575,-48.583981,63.96484,-392.517059,11.0,16.0,-31.0
254542.0,4.0,1.460571,0.829468,-36.315918,-31.799314,-281.738281,11.0,16.0,-31.0
254573.0,4.0,2.853027,1.268677,-10.742187,25.085447,-26.06201,11.0,16.0,-31.0
254605.0,3.132568,0.873657,0.807129,28.869627,-91.125481,297.302246,10.0,13.0,-31.0
254637.0,1.081909,-0.64978,-0.05957,21.240232,-101.196281,491.210907,10.0,13.0,-31.0
254668.0,-1.12085,-3.435913,-1.037109,-18.127441,-10.986327,385.864227,10.0,13.0,-31.0
254699.0,-2.276245,-2.275024,-0.999756,-81.29882,-70.007324,120.605461,10.0,13.0,-31.0
254731.0,-2.539429,-0.340698,-1.087646,75.012207,-40.832516,126.770012,1.0,10.0,-37.0
254762.0,4.0,-1.367065,-0.221191,-136.657715,43.395992,-269.958496,1.0,10.0,-37.0
254793.0,-2.120605,-1.997437,-1.137451,60.913082,-147.155762,-135.620117,1.0,10.0,-37.0
254825.0,0.207764,-2.603027,0.177246,-24.719236,167.053207,26.855467,0.0,10.0,-33.0
254857.0,-0.636841,-0.32605,0.960449,-96.984856,2.502441,-122.619621,0.0,10.0,-33.0
254889.0,-0.176514,-1.255249,-0.472656,36.682129,-124.1455,79.772949,0.0,10.0,-33.0
254922.0,-0.391113,-0.520386,-0.061523,-32.653809,33.508301,-32.714844,1.0,10.0,-34.0
254953.0,-0.199585,-1.162109,-0.079102,22.949217,-28.015135,65.551758,1.0,10.0,-34.0
254985.0,-0.348389,-0.96167,-0.052979,8.117676,-4.394531,47.607418,1.0,10.0,-34.0
255019.0,-0.213989,-1.090088,0.009277,11.169433,-2.929687,55.969234,0.0,8.0,-34.0
255050.0,-0.147827,-1.117432,-0.113159,15.441894,-9.70459,42.297359,0.0,8.0,-34.0
255081.0,0.081421,-0.993652,0.246948,-27.221678,-11.169433,65.429687,0.0,8.0,-34.0
255113.0,0.107422,-1.092285,0.262207,-39.916992,-77.270508,45.471188,0.0,5.0,-34.0
255144.0,0.126465,-0.755981,-0.025513,-59.082027,-119.873039,32.287598,0.0,5.0,-34.0
255175.0,-0.246948,-0.677002,-0.716309,-8.422852,-119.934074,33.081055,0.0,5.0,-34.0
255207.0,-0.45813,-1.107544,-0.826782,29.907225,0.183105,22.15576,-1.0,1.0,-37.0
255240.0,0.141357,-0.854736,0.240479,-8.056641,60.607906,-0.549316,-1.0,1.0,-37.0
255272.0,0.387085,-1.115234,-0.128174,-4.089355,29.052732,4.272461,-1.0,1.0,-37.0
255304.0,-0.333862,-1.157959,-0.164307,9.58252,30.395506,-40.832516,-1.0,1.0,-34.0
255335.0,-0.076538,-0.870361,0.003174,17.211914,40.283199,-23.620604,-1.0,1.0,-34.0
255366.0,0.018799,-1.071777,-0.148437,12.878417,5.554199,-38.452148,-1.0,1.0,-34.0
255398.0,-0.151733,-0.930908,-0.087524,11.901855,4.943848,-40.039062,0.0,4.0,-31.0
255429.0,-0.189331,-1.011841,-0.077759,13.97705,2.929687,-30.700682,0.0,4.0,-31.0
255463.0,-0.222778,-0.998169,-0.039795,13.366698,12.695312,-28.07617,0.0,4.0,-31.0
255496.0,-0.088623,-0.967163,-0.162109,26.000975,-14.09912,-15.014647,1.0,7.0,-33.0
255527.0,-0.21521,-0.994263,-0.097046,31.555174,-32.714844,-6.286621,1.0,7.0,-33.0
255559.0,-0.158203,-0.973877,-0.217773,27.282713,-19.65332,-0.183105,1.0,7.0,-33.0
255591.0,-0.177246,-1.013184,-0.206421,18.676758,-22.27783,0.671387,1.0,3.0,-37.0
255623.0,-0.181152,-0.985229,-0.22168,11.718749,-24.16992,1.89209,1.0,3.0,-37.0
255654.0,-0.087158,-0.971924,-0.257935,1.647949,-25.878904,0.854492,1.0,3.0,-37.0
255686.0,-0.217773,-0.96814,-0.148315,6.896972,-29.541014,5.737304,1.0,1.0,-37.0
255718.0,-0.163086,-0.974365,-0.158569,11.779784,-34.667969,13.183593,1.0,1.0,-37.0
255749.0,-0.059692,-0.931885,-0.184937,23.010252,-33.996582,11.779784,1.0,1.0,-37.0
255782.0,-0.094482,-0.986938,-0.25415,31.799314,-51.086422,12.756347,4.0,0.0,-36.0
255813.0,-0.134521,-1.009888,-0.227417,24.963377,-42.846676,9.094238,4.0,0.0,-36.0
255845.0,-0.095337,-0.960693,-0.315552,15.441894,-48.828121,8.605957,4.0,0.0,-36.0
255877.0,-0.150879,-0.970947,-0.275146,12.756347,-47.241207,16.357422,4.0,0.0,-36.0
255909.0,-0.130737,-0.950073,-0.263062,16.052246,-41.564938,24.108885,5.0,-2.0,-36.0
255941.0,0.071045,-0.924805,-0.276245,22.216795,-43.212887,24.780272,5.0,-2.0,-36.0
255972.0,-0.11377,-0.965454,-0.296143,30.273436,-51.696774,21.667479,5.0,-2.0,-36.0
256004.0,0.032837,-0.952026,-0.299194,32.714844,-29.785154,25.939939,7.0,-9.0,-37.0
256035.0,0.113892,-0.911377,-0.408569,31.249998,-56.091305,16.174316,7.0,-9.0,-37.0
256069.0,-0.016968,-0.991455,-0.336304,30.883787,-42.785641,28.930662,7.0,-9.0,-37.0
256101.0,0.023071,-0.929565,-0.424072,23.803709,-61.401363,23.559568,10.0,-10.0,-32.0
256133.0,0.153442,-0.895752,-0.398926,23.681639,-46.142574,33.26416,10.0,-10.0,-32.0
256165.0,0.060181,-0.93042,-0.411621,20.26367,-54.38232,32.287598,10.0,-10.0,-32.0
256197.0,0.032593,-0.959473,-0.383545,22.216795,-44.616695,43.640133,11.0,-12.0,-31.0
256228.0,0.175415,-0.864746,-0.41687,16.662598,-39.18457,39.916992,11.0,-12.0,-31.0
256260.0,0.206055,-0.939941,-0.403564,14.953612,-25.024412,46.56982,11.0,-12.0,-31.0
256293.0,0.232056,-0.858765,-0.442505,9.277344,-19.714355,44.250484,11.0,-15.0,-34.0
